Shimmer_A5E0_Timestamp_Unix_CAL,Shimmer_A5E0_GSR_Skin_Conductance_CAL_uS,Shimmer_A5E0_GSR_Skin_Resistance_CAL_kOhm,Shimmer_A5E0_PPG_A13_CAL_mV,Shimmer_A5E0_Accel_LN_X_CAL_m/s^2,Shimmer_A5E0_Accel_LN_Y_CAL_m/s^2,Shimmer_A5E0_Accel_LN_Z_CAL_m/s^2,Shimmer_A5E0_Accel_WR_X_CAL_m/s^2,Shimmer_A5E0_Accel_WR_Y_CAL_m/s^2,Shimmer_A5E0_Accel_WR_Z_CAL_m/s^2,Shimmer_A5E0_Gyro_X_CAL_deg/s,Shimmer_A5E0_Gyro_Y_CAL_deg/s,Shimmer_A5E0_Gyro_Z_CAL_deg/s,Shimmer_A5E0_Mag_X_CAL_local,Shimmer_A5E0_Mag_Y_CAL_local,Shimmer_A5E0_Mag_Z_CAL_local,Shimmer_A5E0_Temperature_BMP280_CAL_Celcius,Shimmer_A5E0_Pressure_BMP280_CAL_Pa,Shimmer_A5E0_Ext_Exp_A7_CAL_mV,Shimmer_A5E0_VSenseBatt_CAL_mV,Shimmer_A5E0_PPGtoHR_CAL_BPM
5812868000,0.7494509516837482,1334.3101343101343,2232.0,2275.0,2273.0,1293.0,4932.0,-4808.0,-14752.0,1392.0,-157.0,-3.0,-535.0,-1268.0,-283.0,32768.0,5551104.0,2247.0,2704.0,0.0
5813124000,0.7494509516837482,1334.3101343101343,2224.0,2275.0,2271.0,1295.0,4928.0,-4700.0,-14764.0,1394.0,-184.0,-7.0,-535.0,-1268.0,-283.0,32768.0,5551104.0,2246.0,2704.0,0.0
5813380000,0.7494509516837482,1334.3101343101343,2234.0,2273.0,2268.0,1292.0,4916.0,-4752.0,-14732.0,1316.0,-209.0,-37.0,-536.0,-1266.0,-273.0,32768.0,5551104.0,2251.0,2703.0,0.0
5813636000,0.7494509516837482,1334.3101343101343,2233.0,2276.0,2270.0,1289.0,4940.0,-4704.0,-14740.0,1264.0,-241.0,-27.0,-537.0,-1272.0,-280.0,32768.0,5551104.0,2252.0,2703.0,0.0
5813892000,0.7494509516837482,1334.3101343101343,2239.0,2279.0,2271.0,1286.0,5012.0,-4700.0,-14816.0,1244.0,-210.0,-48.0,-535.0,-1264.0,-274.0,32768.0,5551104.0,2254.0,2703.0,0.0
5814148000,0.7494509516837482,1334.3101343101343,2194.0,2281.0,2268.0,1283.0,5032.0,-4668.0,-14948.0,1306.0,-244.0,-38.0,-533.0,-1266.0,-280.0,32768.0,5551104.0,2456.0,2685.0,0.0
5814404000,0.7494509516837482,1334.3101343101343,2165.0,2285.0,2266.0,1278.0,5128.0,-4592.0,-15076.0,1409.0,-173.0,-70.0,-533.0,-1266.0,-280.0,32768.0,5551360.0,2338.0,2701.0,0.0
5814660000,0.7494509516837482,1334.3101343101343,2241.0,2288.0,2263.0,1269.0,5168.0,-4632.0,-15072.0,1525.0,-154.0,-90.0,-536.0,-1270.0,-279.0,32768.0,5551360.0,2495.0,2686.0,0.0
5814916000,0.029990332786501057,33344.07814407814,2228.0,2292.0,2263.0,1266.0,5272.0,-4536.0,-15188.0,1627.0,-38.0,-102.0,-531.0,-1268.0,-284.0,32768.0,5551104.0,2357.0,2702.0,0.0
5815172000,0.029990332786501057,33344.07814407814,2275.0,2292.0,2265.0,1263.0,5288.0,-4560.0,-15284.0,1703.0,104.0,-136.0,-536.0,-1270.0,-283.0,32768.0,5551104.0,2497.0,2684.0,0.0
5815428000,0.029990332786501057,33344.07814407814,2245.0,2291.0,2268.0,1261.0,5220.0,-4644.0,-15216.0,1820.0,304.0,-6.0,-536.0,-1270.0,-283.0,32768.0,5551104.0,2357.0,2701.0,0.0
5815684000,0.029990332786501057,33344.07814407814,2326.0,2287.0,2273.0,1263.0,5088.0,-4832.0,-15264.0,1884.0,555.0,48.0,-531.0,-1268.0,-279.0,32768.0,5551104.0,2301.0,2703.0,0.0
5815940000,0.029990332786501057,33344.07814407814,2316.0,2269.0,2281.0,1273.0,4840.0,-4856.0,-15104.0,1851.0,695.0,114.0,-537.0,-1269.0,-283.0,32768.0,5551104.0,2270.0,2702.0,0.0
5816196000,0.029990332786501057,33344.07814407814,2285.0,2246.0,2282.0,1284.0,4272.0,-4908.0,-14796.0,1868.0,771.0,250.0,-541.0,-1277.0,-283.0,32768.0,5551104.0,2256.0,2704.0,0.0
5816452000,0.029990332786501057,33344.07814407814,2272.0,2237.0,2278.0,1296.0,4140.0,-4908.0,-14744.0,1750.0,771.0,315.0,-543.0,-1271.0,-277.0,32768.0,5552128.0,2255.0,2703.0,0.0
5816708000,0.029990332786501057,33344.07814407814,2213.0,2251.0,2269.0,1309.0,4436.0,-4716.0,-14436.0,1742.0,680.0,358.0,-543.0,-1271.0,-277.0,32768.0,5552128.0,2456.0,2686.0,0.0
5816964000,0.029990332786501057,33344.07814407814,2192.0,2288.0,2256.0,1311.0,4932.0,-4552.0,-14348.0,1797.0,442.0,338.0,-539.0,-1272.0,-278.0,32768.0,5551872.0,2346.0,2703.0,0.0
5817220000,0.029990332786501057,33344.07814407814,2277.0,2316.0,2243.0,1313.0,5792.0,-4224.0,-14428.0,1815.0,-16.0,110.0,-544.0,-1278.0,-278.0,32768.0,5551872.0,2292.0,2704.0,0.0
5817476000,0.029990332786501057,33344.07814407814,2295.0,2314.0,2235.0,1300.0,5800.0,-4108.0,-14816.0,1673.0,-493.0,-69.0,-541.0,-1275.0,-279.0,32768.0,5551616.0,2271.0,2703.0,0.0
5817732000,0.015299488896195116,65361.66056166056,2277.0,2294.0,2235.0,1292.0,5328.0,-3984.0,-14700.0,1147.0,-611.0,-199.0,-537.0,-1276.0,-286.0,32768.0,5551616.0,2255.0,2702.0,0.0
5817988000,0.015299488896195116,65361.66056166056,2267.0,2283.0,2240.0,1309.0,5060.0,-4068.0,-14288.0,455.0,-492.0,-171.0,-537.0,-1276.0,-286.0,32768.0,5551616.0,2255.0,2703.0,0.0
5818244000,0.015299488896195116,65361.66056166056,2265.0,2290.0,2243.0,1342.0,5188.0,-4144.0,-13920.0,81.0,-453.0,-116.0,-532.0,-1273.0,-284.0,32768.0,5551616.0,2255.0,2703.0,0.0
5818500000,0.015299488896195116,65361.66056166056,2243.0,2310.0,2240.0,1360.0,5668.0,-4112.0,-13400.0,214.0,-571.0,-89.0,-539.0,-1270.0,-285.0,32768.0,5551616.0,2248.0,2702.0,0.0
5818756000,0.015299488896195116,65361.66056166056,2224.0,2330.0,2223.0,1350.0,5980.0,-3904.0,-13532.0,695.0,-814.0,-97.0,-538.0,-1271.0,-281.0,32768.0,5551616.0,2244.0,2701.0,0.0
5819012000,0.015299488896195116,65361.66056166056,2211.0,2330.0,2199.0,1315.0,6016.0,-3248.0,-14312.0,954.0,-1124.0,-164.0,-537.0,-1273.0,-276.0,32768.0,5551872.0,2241.0,2701.0,0.0
5819268000,0.015299488896195116,65361.66056166056,2206.0,2319.0,2187.0,1278.0,5880.0,-3088.0,-14752.0,840.0,-1229.0,-97.0,-537.0,-1273.0,-276.0,32768.0,5551872.0,2242.0,2702.0,0.0
5819524000,0.015299488896195116,65361.66056166056,2213.0,2311.0,2192.0,1252.0,5656.0,-3048.0,-15440.0,478.0,-1207.0,-74.0,-531.0,-1273.0,-282.0,32768.0,5552128.0,2248.0,2703.0,0.0
5819780000,0.015299488896195116,65361.66056166056,2181.0,2307.0,2208.0,1246.0,5496.0,-3576.0,-15620.0,231.0,-1205.0,-45.0,-534.0,-1267.0,-285.0,32768.0,5552128.0,2454.0,2686.0,0.0
5820036000,0.015299488896195116,65361.66056166056,2167.0,2309.0,2231.0,1247.0,5572.0,-3836.0,-15564.0,203.0,-1174.0,-75.0,-538.0,-1269.0,-277.0,32768.0,5551872.0,2344.0,2703.0,0.0
5820292000,0.015299488896195116,65361.66056166056,2261.0,2309.0,2248.0,1253.0,5624.0,-4328.0,-15468.0,304.0,-1205.0,-137.0,-538.0,-1269.0,-277.0,32768.0,5551872.0,2289.0,2702.0,0.0
5820548000,0.010267481044650379,97394.8717948718,2268.0,2302.0,2259.0,1253.0,5508.0,-4452.0,-15416.0,453.0,-1108.0,-149.0,-537.0,-1271.0,-280.0,32768.0,5551872.0,2262.0,2701.0,0.0
5820804000,0.010267686999779351,97392.9181929182,2221.0,2287.0,2269.0,1252.0,5140.0,-4648.0,-15424.0,596.0,-985.0,-110.0,-540.0,-1277.0,-278.0,32768.0,5551872.0,2460.0,2686.0,0.0
5821060000,0.010267686999779351,97392.9181929182,2186.0,2276.0,2275.0,1248.0,5016.0,-4760.0,-15480.0,713.0,-764.0,-32.0,-536.0,-1267.0,-283.0,32768.0,5551872.0,2341.0,2702.0,0.0
5821316000,0.010267686999779351,97392.9181929182,2280.0,2273.0,2283.0,1244.0,4896.0,-4960.0,-15536.0,702.0,-514.0,56.0,-536.0,-1271.0,-278.0,32768.0,5551872.0,2294.0,2703.0,0.0
5821572000,0.010267686999779351,97392.9181929182,2277.0,2271.0,2292.0,1252.0,4840.0,-5264.0,-15408.0,663.0,-271.0,82.0,-536.0,-1271.0,-278.0,32768.0,5551872.0,2264.0,2701.0,0.0
5821828000,0.010267686999779351,97392.9181929182,2232.0,2267.0,2308.0,1271.0,4792.0,-5428.0,-15188.0,656.0,-157.0,94.0,-553.0,-1270.0,-279.0,32768.0,5551872.0,2461.0,2686.0,0.0
5822084000,0.010267686999779351,97392.9181929182,2203.0,2261.0,2320.0,1292.0,4604.0,-5836.0,-14644.0,773.0,-142.0,80.0,-527.0,-1272.0,-278.0,32768.0,5551616.0,2348.0,2703.0,0.0
5822340000,0.010267686999779351,97392.9181929182,2283.0,2251.0,2327.0,1308.0,4456.0,-5896.0,-14484.0,874.0,-85.0,144.0,-529.0,-1269.0,-279.0,32768.0,5551616.0,2292.0,2704.0,0.0
5822596000,0.010267686999779351,97392.9181929182,2280.0,2249.0,2324.0,1322.0,4416.0,-5868.0,-14136.0,1083.0,37.0,201.0,-533.0,-1276.0,-284.0,32768.0,5552128.0,2264.0,2701.0,0.0
5822852000,0.010267686999779351,97392.9181929182,2225.0,2262.0,2312.0,1334.0,4556.0,-5692.0,-13940.0,1402.0,50.0,193.0,-533.0,-1276.0,-284.0,32768.0,5552128.0,2460.0,2685.0,0.0
5823108000,0.010267686999779351,97392.9181929182,2201.0,2280.0,2284.0,1330.0,5016.0,-5064.0,-14020.0,1785.0,-69.0,96.0,-532.0,-1276.0,-279.0,32768.0,5551360.0,2348.0,2703.0,0.0
5823364000,0.010267686999779351,97392.9181929182,2282.0,2298.0,2251.0,1309.0,5252.0,-4652.0,-14244.0,2034.0,-244.0,-2.0,-539.0,-1277.0,-283.0,32768.0,5551360.0,2292.0,2704.0,0.0
5823620000,0.010267686999779351,97392.9181929182,2297.0,2311.0,2222.0,1282.0,5616.0,-3820.0,-14904.0,2057.0,-286.0,-108.0,-542.0,-1275.0,-280.0,32768.0,5552128.0,2271.0,2703.0,0.0
5823876000,0.010267686999779351,97392.9181929182,2247.0,2310.0,2206.0,1253.0,5620.0,-3416.0,-15592.0,1901.0,-282.0,-184.0,-539.0,-1273.0,-282.0,32768.0,5552128.0,2463.0,2685.0,0.0
5824132000,0.010267686999779351,97392.9181929182,2201.0,2298.0,2213.0,1228.0,5416.0,-3444.0,-15852.0,1637.0,-89.0,-146.0,-539.0,-1273.0,-282.0,32768.0,5552128.0,2342.0,2702.0,0.0
5824388000,0.010267686999779351,97392.9181929182,2283.0,2278.0,2226.0,1219.0,4916.0,-3808.0,-16124.0,1408.0,155.0,7.0,-546.0,-1273.0,-284.0,32768.0,5552128.0,2290.0,2704.0,0.0
5824644000,0.010267686999779351,97392.9181929182,2280.0,2267.0,2237.0,1231.0,4764.0,-3952.0,-15940.0,1354.0,394.0,221.0,-540.0,-1277.0,-275.0,32768.0,5551616.0,2264.0,2702.0,0.0
5824900000,0.010267686999779351,97392.9181929182,2227.0,2267.0,2243.0,1253.0,4772.0,-4148.0,-15368.0,1451.0,536.0,327.0,-543.0,-1279.0,-281.0,32768.0,5551616.0,2460.0,2686.0,0.0
5825156000,0.010267686999779351,97392.9181929182,2188.0,2272.0,2243.0,1276.0,4832.0,-4196.0,-15152.0,1627.0,471.0,363.0,-543.0,-1279.0,-281.0,32768.0,5552128.0,2341.0,2702.0,0.0
5825412000,0.010267686999779351,97392.9181929182,2275.0,2285.0,2240.0,1292.0,5128.0,-4120.0,-14740.0,1627.0,471.0,363.0,-560.0,-1276.0,-283.0,32768.0,5552128.0,2289.0,2704.0,0.0
5825668000,0.010267686999779351,97392.9181929182,2281.0,2293.0,2229.0,1298.0,5344.0,-3920.0,-14624.0,1808.0,300.0,295.0,-530.0,-1276.0,-284.0,32768.0,5552384.0,2263.0,2702.0,0.0
5825924000,0.010267686999779351,97392.9181929182,2247.0,2296.0,2217.0,1301.0,5332.0,-3708.0,-14508.0,1969.0,60.0,163.0,-530.0,-1276.0,-283.0,32768.0,5552384.0,2467.0,2687.0,0.0
5826180000,0.010267686999779351,97392.9181929182,2217.0,2295.0,2208.0,1302.0,5328.0,-3412.0,-14456.0,1896.0,-129.0,53.0,-531.0,-1276.0,-286.0,32768.0,5552384.0,2350.0,2703.0,0.0
5826436000,0.010267686999779351,97392.9181929182,2270.0,2293.0,2200.0,1308.0,5284.0,-3376.0,-14424.0,1547.0,-255.0,-32.0,-531.0,-1276.0,-286.0,32768.0,5552384.0,2500.0,2685.0,0.0
5826692000,0.010267686999779351,97392.9181929182,2252.0,2293.0,2205.0,1318.0,5288.0,-3416.0,-14240.0,1007.0,-279.0,-108.0,-531.0,-1279.0,-280.0,32768.0,5552128.0,2359.0,2702.0,0.0
5826948000,0.010267686999779351,97392.9181929182,2303.0,2298.0,2214.0,1328.0,5344.0,-3536.0,-14140.0,578.0,-364.0,-142.0,-542.0,-1278.0,-280.0,32768.0,5552128.0,2505.0,2686.0,0.0
5827204000,0.010267686999779351,97392.9181929182,2271.0,2306.0,2216.0,1326.0,5516.0,-3644.0,-14052.0,460.0,-534.0,-181.0,-548.0,-1274.0,-289.0,32768.0,5552128.0,2362.0,2702.0,0.0
5827460000,0.010267686999779351,97392.9181929182,2344.0,2313.0,2207.0,1312.0,5608.0,-3576.0,-14224.0,609.0,-718.0,-202.0,-538.0,-1275.0,-283.0,32768.0,5552128.0,2303.0,2703.0,0.0
5827716000,0.010267686999779351,97392.9181929182,2332.0,2317.0,2200.0,1292.0,5756.0,-3292.0,-14756.0,749.0,-892.0,-261.0,-538.0,-1275.0,-283.0,32768.0,5552128.0,2276.0,2703.0,0.0
5827972000,0.010267686999779351,97392.9181929182,2277.0,2319.0,2199.0,1272.0,5772.0,-3268.0,-15184.0,691.0,-986.0,-234.0,-537.0,-1280.0,-284.0,32768.0,5552128.0,2467.0,2686.0,0.0
5828228000,0.010267686999779351,97392.9181929182,2219.0,2318.0,2208.0,1262.0,5748.0,-3316.0,-15268.0,451.0,-1023.0,-217.0,-539.0,-1275.0,-289.0,32768.0,5552384.0,2344.0,2702.0,0.0
5828484000,0.010267481044650379,97394.8717948718,2303.0,2314.0,2220.0,1256.0,5672.0,-3632.0,-15344.0,161.0,-1023.0,-165.0,-539.0,-1272.0,-279.0,32768.0,5552384.0,2295.0,2703.0,0.0
5828740000,0.010267686999779351,97392.9181929182,2253.0,2312.0,2234.0,1260.0,5636.0,-3872.0,-15372.0,-54.0,-988.0,-130.0,-540.0,-1276.0,-277.0,32768.0,5552128.0,2468.0,2684.0,0.0
5828996000,0.010267686999779351,97392.9181929182,2212.0,2307.0,2247.0,1269.0,5564.0,-4304.0,-15148.0,-152.0,-935.0,-94.0,-540.0,-1276.0,-277.0,32768.0,5552128.0,2345.0,2702.0,0.0
5829252000,0.010267686999779351,97392.9181929182,2289.0,2307.0,2263.0,1279.0,5536.0,-4464.0,-15004.0,-85.0,-916.0,-104.0,-534.0,-1269.0,-281.0,32768.0,5552128.0,2289.0,2702.0,0.0
5829508000,0.010267686999779351,97392.9181929182,2288.0,2300.0,2270.0,1282.0,5372.0,-4744.0,-14832.0,82.0,-919.0,-96.0,-530.0,-1273.0,-276.0,32768.0,5552128.0,2265.0,2704.0,0.0
5829764000,0.010267686999779351,97392.9181929182,2281.0,2295.0,2272.0,1285.0,5220.0,-4764.0,-14816.0,304.0,-951.0,-98.0,-526.0,-1265.0,-281.0,32768.0,5551872.0,2259.0,2703.0,0.0
5830020000,0.010267686999779351,97392.9181929182,2257.0,2289.0,2268.0,1282.0,5164.0,-4680.0,-14920.0,449.0,-946.0,-120.0,-526.0,-1265.0,-281.0,32768.0,5551872.0,2250.0,2702.0,0.0
5830276000,0.010267686999779351,97392.9181929182,2238.0,2279.0,2263.0,1277.0,4956.0,-4552.0,-15036.0,468.0,-915.0,-99.0,-533.0,-1272.0,-281.0,32768.0,5552128.0,2245.0,2702.0,0.0
5830532000,0.010267686999779351,97392.9181929182,2237.0,2271.0,2260.0,1271.0,4852.0,-4484.0,-15024.0,369.0,-841.0,-86.0,-532.0,-1274.0,-284.0,32768.0,5552128.0,2250.0,2703.0,0.0
5830788000,0.010267686999779351,97392.9181929182,2227.0,2263.0,2260.0,1267.0,4648.0,-4472.0,-15096.0,247.0,-722.0,-57.0,-537.0,-1267.0,-284.0,32768.0,5552640.0,2246.0,2702.0,0.0
5831044000,0.010267686999779351,97392.9181929182,2182.0,2261.0,2265.0,1270.0,4632.0,-4520.0,-15152.0,114.0,-589.0,5.0,-534.0,-1271.0,-282.0,32768.0,5552640.0,2452.0,2686.0,0.0
5831300000,0.010267686999779351,97392.9181929182,2150.0,2264.0,2273.0,1277.0,4704.0,-4788.0,-14968.0,125.0,-435.0,50.0,-534.0,-1271.0,-282.0,32768.0,5552384.0,2336.0,2701.0,0.0
5831556000,0.010267686999779351,97392.9181929182,2254.0,2267.0,2280.0,1288.0,4724.0,-5116.0,-14780.0,258.0,-335.0,89.0,-541.0,-1274.0,-283.0,32768.0,5552384.0,2287.0,2704.0,0.0
5831812000,0.010267686999779351,97392.9181929182,2265.0,2265.0,2278.0,1290.0,4708.0,-4896.0,-14720.0,515.0,-346.0,95.0,-537.0,-1271.0,-283.0,32768.0,5552384.0,2264.0,2704.0,0.0
5832068000,0.010267686999779351,97392.9181929182,2238.0,2264.0,2274.0,1288.0,4668.0,-4780.0,-14788.0,817.0,-336.0,69.0,-543.0,-1269.0,-284.0,32768.0,5552384.0,2467.0,2687.0,0.0
5832324000,0.010267686999779351,97392.9181929182,2197.0,2260.0,2261.0,1281.0,4620.0,-4608.0,-14928.0,969.0,-402.0,62.0,-538.0,-1273.0,-282.0,32768.0,5552384.0,2344.0,2702.0,0.0
5832580000,0.010267686999779351,97392.9181929182,2279.0,2263.0,2259.0,1284.0,4676.0,-4480.0,-14884.0,973.0,-424.0,31.0,-538.0,-1273.0,-282.0,32768.0,5552384.0,2290.0,2704.0,0.0
5832836000,0.010267686999779351,97392.9181929182,2280.0,2261.0,2252.0,1277.0,4636.0,-4408.0,-14904.0,926.0,-446.0,10.0,-533.0,-1274.0,-277.0,32768.0,5552128.0,2264.0,2702.0,0.0
5833092000,0.010267686999779351,97392.9181929182,2259.0,2264.0,2248.0,1278.0,4672.0,-4204.0,-14972.0,864.0,-516.0,-14.0,-532.0,-1271.0,-277.0,32768.0,5552128.0,2252.0,2702.0,0.0
5833348000,0.010267686999779351,97392.9181929182,2252.0,2269.0,2242.0,1275.0,4712.0,-4104.0,-15068.0,703.0,-558.0,16.0,-538.0,-1271.0,-276.0,32768.0,5551616.0,2253.0,2703.0,0.0
5833604000,0.010267686999779351,97392.9181929182,2240.0,2272.0,2239.0,1273.0,4852.0,-4072.0,-15104.0,588.0,-540.0,2.0,-529.0,-1267.0,-280.0,32768.0,5551616.0,2247.0,2702.0,0.0
5833860000,0.010267686999779351,97392.9181929182,2222.0,2277.0,2240.0,1276.0,4932.0,-4116.0,-14988.0,524.0,-544.0,-6.0,-529.0,-1267.0,-280.0,32768.0,5552128.0,2242.0,2701.0,0.0
5834116000,0.010267686999779351,97392.9181929182,2214.0,2279.0,2238.0,1274.0,4952.0,-4100.0,-15028.0,563.0,-528.0,5.0,-529.0,-1269.0,-281.0,32768.0,5552128.0,2242.0,2702.0,0.0
5834372000,0.010267686999779351,97392.9181929182,2207.0,2281.0,2237.0,1271.0,5068.0,-4004.0,-15048.0,603.0,-487.0,-4.0,-536.0,-1269.0,-282.0,32768.0,5552128.0,2242.0,2702.0,0.0
5834628000,0.010267686999779351,97392.9181929182,2204.0,2281.0,2232.0,1267.0,5016.0,-3956.0,-15152.0,601.0,-460.0,-10.0,-535.0,-1270.0,-278.0,32768.0,5552128.0,2242.0,2702.0,0.0
5834884000,0.010267686999779351,97392.9181929182,2185.0,2282.0,2235.0,1267.0,5084.0,-3996.0,-15196.0,590.0,-379.0,5.0,-535.0,-1270.0,-278.0,32768.0,5552384.0,2234.0,2700.0,0.0
5835140000,0.010267686999779351,97392.9181929182,2185.0,2282.0,2238.0,1267.0,5044.0,-4044.0,-15168.0,510.0,-318.0,30.0,-537.0,-1271.0,-280.0,32768.0,5552384.0,2238.0,2702.0,0.0
5835396000,0.010267686999779351,97392.9181929182,2187.0,2284.0,2245.0,1269.0,5116.0,-4252.0,-15104.0,516.0,-255.0,13.0,-535.0,-1269.0,-279.0,32768.0,5552128.0,2240.0,2702.0,0.0
5835652000,0.010267686999779351,97392.9181929182,2206.0,2284.0,2251.0,1273.0,5092.0,-4292.0,-15028.0,593.0,-245.0,11.0,-536.0,-1273.0,-279.0,32768.0,5552128.0,2247.0,2703.0,0.0
5835908000,0.010267686999779351,97392.9181929182,2208.0,2283.0,2248.0,1276.0,5136.0,-4300.0,-15032.0,683.0,-221.0,5.0,-538.0,-1275.0,-282.0,32768.0,5552128.0,2243.0,2701.0,0.0
5836164000,0.010267686999779351,97392.9181929182,2183.0,2285.0,2247.0,1281.0,5100.0,-4252.0,-14928.0,716.0,-257.0,2.0,-538.0,-1275.0,-282.0,32768.0,5552128.0,2457.0,2687.0,0.0
5836420000,0.010267686999779351,97392.9181929182,2167.0,2287.0,2246.0,1286.0,5124.0,-4176.0,-14852.0,693.0,-294.0,7.0,-546.0,-1265.0,-278.0,32768.0,5552128.0,2341.0,2704.0,0.0
5836676000,0.010267686999779351,97392.9181929182,2263.0,2285.0,2250.0,1293.0,5100.0,-4312.0,-14644.0,696.0,-329.0,-27.0,-530.0,-1270.0,-277.0,32768.0,5552128.0,2289.0,2704.0,0.0
5836932000,0.010267686999779351,97392.9181929182,2269.0,2282.0,2246.0,1293.0,5056.0,-4208.0,-14716.0,617.0,-435.0,-4.0,-531.0,-1272.0,-281.0,32768.0,5552640.0,2264.0,2702.0,0.0
5837188000,0.010267686999779351,97392.9181929182,2252.0,2281.0,2250.0,1294.0,5004.0,-4308.0,-14688.0,476.0,-477.0,-12.0,-533.0,-1272.0,-276.0,32768.0,5552640.0,2252.0,2702.0,0.0
5837444000,0.010267686999779351,97392.9181929182,2239.0,2278.0,2259.0,1291.0,4992.0,-4424.0,-14696.0,405.0,-500.0,-40.0,-533.0,-1272.0,-276.0,32768.0,5551616.0,2247.0,2702.0,0.0
5837700000,0.010267686999779351,97392.9181929182,2231.0,2274.0,2262.0,1286.0,4888.0,-4500.0,-14788.0,344.0,-545.0,-36.0,-530.0,-1275.0,-281.0,32768.0,5551616.0,2246.0,2704.0,0.0
5837956000,0.010267686999779351,97392.9181929182,2231.0,2275.0,2265.0,1282.0,4904.0,-4572.0,-14884.0,267.0,-541.0,-5.0,-527.0,-1263.0,-280.0,32768.0,5552384.0,2250.0,2703.0,0.0
5838212000,0.010267686999779351,97392.9181929182,2232.0,2277.0,2271.0,1281.0,4900.0,-4696.0,-14916.0,202.0,-499.0,-10.0,-532.0,-1268.0,-286.0,32768.0,5552384.0,2252.0,2703.0,0.0
5838468000,0.010267686999779351,97392.9181929182,2228.0,2282.0,2279.0,1283.0,4984.0,-4888.0,-14848.0,215.0,-441.0,-34.0,-539.0,-1271.0,-281.0,32768.0,5552384.0,2247.0,2702.0,0.0
5838724000,0.010267686999779351,97392.9181929182,2222.0,2277.0,2285.0,1284.0,4960.0,-4960.0,-14836.0,289.0,-456.0,-13.0,-539.0,-1271.0,-281.0,32768.0,5552384.0,2246.0,2704.0,0.0
5838980000,0.010267686999779351,97392.9181929182,2228.0,2278.0,2286.0,1286.0,4972.0,-5028.0,-14796.0,454.0,-394.0,11.0,-544.0,-1271.0,-278.0,32768.0,5552384.0,2250.0,2703.0,0.0
5839236000,0.010267686999779351,97392.9181929182,2231.0,2280.0,2285.0,1287.0,4996.0,-5052.0,-14812.0,603.0,-350.0,34.0,-531.0,-1273.0,-283.0,32768.0,5552384.0,2252.0,2703.0,0.0
5839492000,0.010267686999779351,97392.9181929182,2237.0,2278.0,2282.0,1286.0,4948.0,-4972.0,-14792.0,701.0,-349.0,18.0,-536.0,-1273.0,-278.0,32768.0,5552640.0,2253.0,2703.0,0.0
5839748000,0.010267686999779351,97392.9181929182,2239.0,2277.0,2276.0,1285.0,4952.0,-4808.0,-14832.0,760.0,-357.0,3.0,-535.0,-1265.0,-280.0,32768.0,5552640.0,2253.0,2703.0,0.0
5840004000,0.010267686999779351,97392.9181929182,2234.0,2276.0,2270.0,1283.0,4924.0,-4724.0,-14856.0,769.0,-329.0,7.0,-535.0,-1265.0,-280.0,32768.0,5552640.0,2247.0,2702.0,0.0
5840260000,0.010267686999779351,97392.9181929182,2247.0,2278.0,2267.0,1284.0,4952.0,-4632.0,-14824.0,772.0,-345.0,-9.0,-529.0,-1269.0,-277.0,32768.0,5552640.0,2257.0,2703.0,0.0
5840516000,0.010267686999779351,97392.9181929182,2239.0,2278.0,2265.0,1282.0,4948.0,-4608.0,-14852.0,745.0,-334.0,14.0,-534.0,-1267.0,-275.0,32768.0,5552640.0,2249.0,2702.0,0.0
5840772000,0.010267686999779351,97392.9181929182,2236.0,2279.0,2265.0,1283.0,4924.0,-4620.0,-14828.0,740.0,-320.0,8.0,-530.0,-1272.0,-283.0,32768.0,5552640.0,2252.0,2703.0,0.0
5841028000,0.010267686999779351,97392.9181929182,2226.0,2277.0,2264.0,1283.0,4940.0,-4604.0,-14880.0,776.0,-314.0,30.0,-530.0,-1272.0,-283.0,32768.0,5552384.0,2246.0,2702.0,0.0
5841284000,0.010267686999779351,97392.9181929182,2150.0,2276.0,2261.0,1282.0,4932.0,-4540.0,-14908.0,769.0,-307.0,18.0,-529.0,-1266.0,-280.0,32768.0,5552384.0,2207.0,2688.0,0.0
5841540000,0.010267686999779351,97392.9181929182,2137.0,2273.0,2261.0,1279.0,4884.0,-4540.0,-14880.0,752.0,-305.0,20.0,-531.0,-1270.0,-280.0,32768.0,5551872.0,2224.0,2701.0,0.0
5841796000,0.010267686999779351,97392.9181929182,2160.0,2274.0,2259.0,1283.0,4844.0,-4492.0,-14880.0,712.0,-297.0,23.0,-537.0,-1268.0,-279.0,32768.0,5551872.0,2240.0,2703.0,0.0
5842052000,0.010267686999779351,97392.9181929182,2177.0,2272.0,2260.0,1283.0,4856.0,-4516.0,-14872.0,667.0,-314.0,43.0,-528.0,-1272.0,-279.0,32768.0,5552128.0,2241.0,2702.0,0.0
5842308000,0.010267686999779351,97392.9181929182,2186.0,2273.0,2261.0,1286.0,4840.0,-4552.0,-14860.0,659.0,-329.0,14.0,-528.0,-1272.0,-279.0,32768.0,5552128.0,2241.0,2702.0,0.0
5842564000,0.010267686999779351,97392.9181929182,2202.0,2272.0,2263.0,1289.0,4864.0,-4548.0,-14864.0,659.0,-329.0,14.0,-540.0,-1269.0,-280.0,32768.0,5553152.0,2248.0,2703.0,0.0
5842820000,0.010267686999779351,97392.9181929182,2215.0,2273.0,2264.0,1284.0,4872.0,-4632.0,-14820.0,674.0,-349.0,3.0,-533.0,-1267.0,-284.0,32768.0,5553152.0,2252.0,2703.0,0.0
5843076000,0.010267686999779351,97392.9181929182,2216.0,2271.0,2263.0,1282.0,4872.0,-4576.0,-14908.0,713.0,-379.0,-19.0,-541.0,-1265.0,-281.0,32768.0,5552640.0,2246.0,2702.0,0.0
5843332000,0.010267686999779351,97392.9181929182,2152.0,2273.0,2260.0,1280.0,4888.0,-4568.0,-14948.0,729.0,-409.0,-38.0,-533.0,-1273.0,-279.0,32768.0,5552640.0,2213.0,2689.0,0.0
5843588000,0.010267686999779351,97392.9181929182,2145.0,2274.0,2258.0,1281.0,4904.0,-4528.0,-14972.0,740.0,-351.0,-41.0,-533.0,-1273.0,-279.0,32768.0,5552128.0,2228.0,2702.0,0.0
5843844000,0.010267686999779351,97392.9181929182,2172.0,2277.0,2261.0,1279.0,4976.0,-4536.0,-14956.0,735.0,-333.0,-58.0,-534.0,-1265.0,-275.0,32768.0,5552128.0,2242.0,2703.0,0.0
5844100000,0.010267686999779351,97392.9181929182,2198.0,2278.0,2260.0,1282.0,4964.0,-4508.0,-14912.0,736.0,-343.0,-69.0,-530.0,-1267.0,-276.0,32768.0,5552640.0,2249.0,2703.0,0.0
5844356000,0.010267686999779351,97392.9181929182,2133.0,2280.0,2261.0,1279.0,5004.0,-4524.0,-14896.0,697.0,-342.0,-52.0,-532.0,-1271.0,-281.0,32768.0,5552640.0,2207.0,2688.0,0.0
5844612000,0.010267686999779351,97392.9181929182,2147.0,2281.0,2263.0,1281.0,5024.0,-4556.0,-14868.0,667.0,-349.0,-54.0,-530.0,-1263.0,-281.0,32768.0,5552640.0,2233.0,2703.0,0.0
5844868000,0.010267686999779351,97392.9181929182,2165.0,2282.0,2266.0,1286.0,5028.0,-4636.0,-14876.0,642.0,-332.0,-35.0,-530.0,-1263.0,-281.0,32768.0,5552640.0,2240.0,2704.0,0.0
5845124000,0.010267686999779351,97392.9181929182,2194.0,2281.0,2265.0,1285.0,5064.0,-4616.0,-14792.0,605.0,-351.0,-55.0,-526.0,-1270.0,-281.0,32768.0,5553152.0,2247.0,2703.0,0.0
5845380000,0.010267686999779351,97392.9181929182,2217.0,2282.0,2267.0,1283.0,5032.0,-4632.0,-14856.0,659.0,-323.0,-9.0,-529.0,-1273.0,-281.0,32768.0,5553152.0,2251.0,2703.0,0.0
5845636000,0.010267686999779351,97392.9181929182,2224.0,2282.0,2267.0,1283.0,5072.0,-4676.0,-14840.0,660.0,-298.0,1.0,-535.0,-1266.0,-271.0,32768.0,5552384.0,2252.0,2703.0,0.0
5845892000,0.010267686999779351,97392.9181929182,2232.0,2281.0,2267.0,1282.0,5032.0,-4648.0,-14876.0,654.0,-324.0,-6.0,-535.0,-1266.0,-271.0,32768.0,5552384.0,2253.0,2703.0,0.0
5846148000,0.010267686999779351,97392.9181929182,2231.0,2279.0,2266.0,1286.0,4968.0,-4668.0,-14856.0,661.0,-332.0,-13.0,-538.0,-1262.0,-282.0,32768.0,5552640.0,2247.0,2702.0,0.0
5846404000,0.010267686999779351,97392.9181929182,2237.0,2279.0,2269.0,1288.0,5012.0,-4648.0,-14800.0,645.0,-337.0,-15.0,-538.0,-1265.0,-277.0,32768.0,5552640.0,2251.0,2703.0,0.0
5846660000,0.010267686999779351,97392.9181929182,2235.0,2279.0,2268.0,1291.0,5004.0,-4656.0,-14696.0,625.0,-371.0,-18.0,-533.0,-1266.0,-281.0,32768.0,5552640.0,2252.0,2703.0,0.0
5846916000,0.010267686999779351,97392.9181929182,2239.0,2278.0,2268.0,1288.0,5016.0,-4708.0,-14748.0,631.0,-386.0,-3.0,-538.0,-1272.0,-276.0,32768.0,5552640.0,2253.0,2703.0,0.0
5847172000,0.010267686999779351,97392.9181929182,2232.0,2278.0,2271.0,1290.0,4984.0,-4744.0,-14748.0,619.0,-410.0,-8.0,-538.0,-1272.0,-276.0,32768.0,5552128.0,2247.0,2702.0,0.0
5847428000,0.010267686999779351,97392.9181929182,2207.0,2277.0,2270.0,1288.0,5004.0,-4728.0,-14736.0,607.0,-401.0,5.0,-535.0,-1265.0,-282.0,32768.0,5552128.0,2459.0,2687.0,0.0
5847684000,0.010267686999779351,97392.9181929182,2193.0,2279.0,2274.0,1289.0,5008.0,-4740.0,-14724.0,578.0,-399.0,-7.0,-537.0,-1268.0,-279.0,32768.0,5552896.0,2347.0,2703.0,0.0
5847940000,0.010267686999779351,97392.9181929182,2282.0,2279.0,2275.0,1288.0,4980.0,-4804.0,-14780.0,555.0,-407.0,0.0,-529.0,-1269.0,-279.0,32768.0,5552896.0,2291.0,2704.0,0.0
5848196000,0.010267686999779351,97392.9181929182,2296.0,2278.0,2278.0,1286.0,4960.0,-4860.0,-14804.0,552.0,-418.0,-10.0,-528.0,-1261.0,-279.0,32768.0,5552640.0,2271.0,2703.0,0.0
5848452000,0.010267686999779351,97392.9181929182,2221.0,2278.0,2276.0,1286.0,4992.0,-4868.0,-14800.0,573.0,-396.0,-12.0,-528.0,-1261.0,-279.0,32768.0,5552640.0,2226.0,2690.0,0.0
5848708000,0.010267686999779351,97392.9181929182,2199.0,2277.0,2278.0,1284.0,4996.0,-4860.0,-14804.0,610.0,-385.0,7.0,-522.0,-1272.0,-280.0,32768.0,5552640.0,2236.0,2704.0,0.0
5848964000,0.010267686999779351,97392.9181929182,2199.0,2279.0,2280.0,1285.0,4948.0,-4900.0,-14808.0,626.0,-373.0,1.0,-529.0,-1265.0,-274.0,32768.0,5552640.0,2241.0,2704.0,0.0
5849220000,0.010267686999779351,97392.9181929182,2198.0,2278.0,2279.0,1287.0,4964.0,-4880.0,-14844.0,647.0,-380.0,16.0,-536.0,-1265.0,-279.0,32768.0,5552896.0,2241.0,2702.0,0.0
5849476000,0.010267686999779351,97392.9181929182,2197.0,2277.0,2279.0,1287.0,4980.0,-4872.0,-14828.0,702.0,-373.0,15.0,-535.0,-1272.0,-280.0,32768.0,5552896.0,2241.0,2702.0,0.0
5849732000,0.010267686999779351,97392.9181929182,2208.0,2274.0,2278.0,1287.0,4904.0,-4892.0,-14804.0,716.0,-379.0,20.0,-535.0,-1272.0,-280.0,32768.0,5552384.0,2248.0,2703.0,0.0
5849988000,0.010267686999779351,97392.9181929182,2218.0,2273.0,2277.0,1287.0,4884.0,-4880.0,-14788.0,700.0,-374.0,22.0,-534.0,-1261.0,-279.0,32768.0,5552384.0,2247.0,2704.0,0.0
5850244000,0.010267686999779351,97392.9181929182,2224.0,2272.0,2277.0,1287.0,4876.0,-4828.0,-14816.0,710.0,-359.0,-20.0,-534.0,-1265.0,-280.0,32768.0,5552384.0,2250.0,2703.0,0.0
5850500000,0.010267686999779351,97392.9181929182,2228.0,2272.0,2275.0,1288.0,4860.0,-4840.0,-14824.0,750.0,-368.0,22.0,-533.0,-1270.0,-278.0,32768.0,5552384.0,2252.0,2703.0,0.0
5850756000,0.010267686999779351,97392.9181929182,2234.0,2274.0,2274.0,1285.0,4888.0,-4812.0,-14820.0,728.0,-353.0,-8.0,-533.0,-1270.0,-278.0,32768.0,5553152.0,2253.0,2703.0,0.0
5851012000,0.010267686999779351,97392.9181929182,2228.0,2272.0,2272.0,1286.0,4876.0,-4832.0,-14764.0,715.0,-374.0,-7.0,-533.0,-1265.0,-280.0,32768.0,5553152.0,2248.0,2704.0,0.0
5851268000,0.010267686999779351,97392.9181929182,2231.0,2274.0,2271.0,1286.0,4884.0,-4740.0,-14784.0,721.0,-347.0,5.0,-528.0,-1268.0,-281.0,32768.0,5552128.0,2252.0,2703.0,0.0
5851524000,0.010267686999779351,97392.9181929182,2179.0,2276.0,2271.0,1284.0,4944.0,-4760.0,-14768.0,709.0,-374.0,-3.0,-522.0,-1264.0,-276.0,32768.0,5552128.0,2224.0,2691.0,0.0
5851780000,0.010267686999779351,97392.9181929182,2183.0,2279.0,2271.0,1282.0,4988.0,-4748.0,-14876.0,722.0,-392.0,8.0,-527.0,-1270.0,-279.0,32768.0,5552384.0,2240.0,2703.0,0.0
5852036000,0.010267686999779351,97392.9181929182,2202.0,2278.0,2269.0,1283.0,5016.0,-4700.0,-14824.0,696.0,-414.0,-28.0,-527.0,-1270.0,-279.0,32768.0,5552384.0,2247.0,2703.0,0.0
5852292000,0.010267686999779351,97392.9181929182,2222.0,2277.0,2271.0,1282.0,4972.0,-4748.0,-14876.0,703.0,-397.0,2.0,-541.0,-1267.0,-277.0,32768.0,5552384.0,2251.0,2703.0,0.0
5852548000,0.010267686999779351,97392.9181929182,2170.0,2277.0,2271.0,1283.0,4996.0,-4748.0,-14872.0,667.0,-364.0,17.0,-530.0,-1264.0,-276.0,32768.0,5552384.0,2219.0,2692.0,0.0
5852804000,0.010267686999779351,97392.9181929182,2177.0,2276.0,2272.0,1284.0,4948.0,-4748.0,-14892.0,648.0,-338.0,14.0,-531.0,-1266.0,-279.0,32768.0,5552384.0,2238.0,2703.0,0.0
5853060000,0.010267686999779351,97392.9181929182,2199.0,2274.0,2275.0,1284.0,4912.0,-4800.0,-14848.0,654.0,-326.0,41.0,-535.0,-1270.0,-277.0,32768.0,5552384.0,2247.0,2703.0,0.0
5853316000,0.010267686999779351,97392.9181929182,2157.0,2276.0,2276.0,1285.0,4936.0,-4836.0,-14808.0,646.0,-314.0,18.0,-535.0,-1270.0,-277.0,32768.0,5552640.0,2446.0,2684.0,0.0
5853572000,0.010267686999779351,97392.9181929182,2153.0,2274.0,2279.0,1288.0,4924.0,-4896.0,-14760.0,678.0,-346.0,23.0,-533.0,-1270.0,-277.0,32768.0,5552640.0,2341.0,2703.0,0.0
5853828000,0.010267686999779351,97392.9181929182,2262.0,2273.0,2280.0,1290.0,4896.0,-4916.0,-14744.0,741.0,-339.0,16.0,-535.0,-1269.0,-280.0,32768.0,5552384.0,2294.0,2703.0,0.0
5854084000,0.010267686999779351,97392.9181929182,2280.0,2273.0,2277.0,1289.0,4864.0,-4888.0,-14720.0,749.0,-376.0,-25.0,-533.0,-1265.0,-281.0,32768.0,5552384.0,2267.0,2704.0,0.0
5854340000,0.010267686999779351,97392.9181929182,2263.0,2273.0,2276.0,1289.0,4884.0,-4844.0,-14760.0,747.0,-378.0,-27.0,-541.0,-1261.0,-276.0,32768.0,5552384.0,2254.0,2702.0,0.0
5854596000,0.010267481044650379,97394.8717948718,2256.0,2272.0,2273.0,1285.0,4912.0,-4796.0,-14792.0,735.0,-397.0,-31.0,-541.0,-1261.0,-276.0,32768.0,5552384.0,2254.0,2703.0,0.0
5854852000,0.010267686999779351,97392.9181929182,2253.0,2273.0,2275.0,1286.0,4916.0,-4800.0,-14820.0,696.0,-395.0,-30.0,-538.0,-1269.0,-280.0,32768.0,5552640.0,2254.0,2703.0,0.0
5855108000,0.010267686999779351,97392.9181929182,2242.0,2274.0,2274.0,1286.0,4888.0,-4844.0,-14856.0,668.0,-387.0,-17.0,-525.0,-1267.0,-275.0,32768.0,5552640.0,2249.0,2704.0,0.0
5855364000,0.010267686999779351,97392.9181929182,2243.0,2274.0,2279.0,1285.0,4912.0,-4900.0,-14864.0,660.0,-371.0,8.0,-530.0,-1267.0,-282.0,32768.0,5552896.0,2251.0,2703.0,0.0
5855620000,0.010267481044650379,97394.8717948718,2185.0,2274.0,2282.0,1286.0,4956.0,-4928.0,-14832.0,664.0,-359.0,7.0,-530.0,-1267.0,-282.0,32768.0,5552896.0,2224.0,2691.0,0.0
5855876000,0.010267686999779351,97392.9181929182,2187.0,2275.0,2281.0,1284.0,4948.0,-4924.0,-14828.0,693.0,-349.0,10.0,-523.0,-1261.0,-281.0,32768.0,5552640.0,2240.0,2703.0,0.0
5856132000,0.010267686999779351,97392.9181929182,2199.0,2275.0,2282.0,1287.0,4940.0,-5000.0,-14792.0,718.0,-334.0,3.0,-537.0,-1263.0,-277.0,32768.0,5552640.0,2243.0,2704.0,0.0
5856388000,0.010267686999779351,97392.9181929182,2212.0,2278.0,2284.0,1289.0,4940.0,-5004.0,-14788.0,758.0,-357.0,9.0,-531.0,-1265.0,-280.0,32768.0,5552640.0,2249.0,2703.0,0.0
5856644000,0.010267686999779351,97392.9181929182,2227.0,2276.0,2282.0,1288.0,4988.0,-5008.0,-14748.0,762.0,-318.0,1.0,-528.0,-1262.0,-275.0,32768.0,5552640.0,2251.0,2703.0,0.0
5856900000,0.010267686999779351,97392.9181929182,2220.0,2275.0,2283.0,1292.0,4976.0,-4948.0,-14756.0,778.0,-331.0,-23.0,-528.0,-1262.0,-275.0,32768.0,5552896.0,2246.0,2702.0,0.0
5857156000,0.010267686999779351,97392.9181929182,2220.0,2277.0,2281.0,1292.0,4964.0,-4924.0,-14724.0,759.0,-333.0,-45.0,-535.0,-1259.0,-280.0,32768.0,5552896.0,2246.0,2704.0,0.0
5857412000,0.010267686999779351,97392.9181929182,2216.0,2277.0,2279.0,1292.0,4960.0,-4960.0,-14704.0,786.0,-329.0,-2.0,-534.0,-1269.0,-280.0,32768.0,5552384.0,2243.0,2702.0,0.0
5857668000,0.010267686999779351,97392.9181929182,2222.0,2278.0,2278.0,1291.0,4976.0,-4904.0,-14740.0,751.0,-356.0,-9.0,-541.0,-1266.0,-285.0,32768.0,5552384.0,2249.0,2703.0,0.0
5857924000,0.010267686999779351,97392.9181929182,2227.0,2276.0,2280.0,1291.0,4980.0,-4924.0,-14684.0,712.0,-365.0,17.0,-545.0,-1265.0,-277.0,32768.0,5551872.0,2252.0,2703.0,0.0
5858180000,0.010267686999779351,97392.9181929182,2234.0,2276.0,2280.0,1291.0,4964.0,-4940.0,-14756.0,747.0,-356.0,4.0,-545.0,-1265.0,-277.0,32768.0,5551872.0,2253.0,2703.0,0.0
5858436000,0.010267686999779351,97392.9181929182,2240.0,2275.0,2282.0,1288.0,4932.0,-4944.0,-14748.0,729.0,-371.0,-6.0,-527.0,-1264.0,-274.0,32768.0,5552384.0,2253.0,2703.0,0.0
5858692000,0.010267686999779351,97392.9181929182,2243.0,2275.0,2283.0,1289.0,4976.0,-4944.0,-14768.0,770.0,-377.0,9.0,-525.0,-1267.0,-278.0,32768.0,5552384.0,2254.0,2703.0,0.0
5858948000,0.010267686999779351,97392.9181929182,2245.0,2276.0,2282.0,1288.0,4944.0,-4984.0,-14728.0,782.0,-369.0,-14.0,-528.0,-1266.0,-280.0,32768.0,5552384.0,2254.0,2703.0,0.0
5859204000,0.010267686999779351,97392.9181929182,2244.0,2276.0,2283.0,1289.0,4912.0,-5000.0,-14788.0,781.0,-370.0,-2.0,-542.0,-1263.0,-276.0,32768.0,5552384.0,2254.0,2703.0,0.0
5859460000,0.010267686999779351,97392.9181929182,2237.0,2275.0,2282.0,1288.0,4924.0,-4968.0,-14816.0,781.0,-370.0,-2.0,-542.0,-1263.0,-276.0,32768.0,5552640.0,2247.0,2702.0,0.0
5859716000,0.010267686999779351,97392.9181929182,2189.0,2274.0,2283.0,1288.0,4948.0,-4980.0,-14812.0,771.0,-362.0,4.0,-531.0,-1264.0,-276.0,32768.0,5552640.0,2225.0,2694.0,0.0
5859972000,0.010267686999779351,97392.9181929182,2194.0,2273.0,2283.0,1288.0,4932.0,-4908.0,-14788.0,800.0,-339.0,10.0,-531.0,-1267.0,-281.0,32768.0,5552640.0,2241.0,2703.0,0.0
5860228000,0.010267686999779351,97392.9181929182,2202.0,2273.0,2282.0,1289.0,4912.0,-4924.0,-14768.0,812.0,-352.0,-10.0,-536.0,-1265.0,-275.0,32768.0,5552640.0,2243.0,2704.0,0.0
5860484000,0.010267686999779351,97392.9181929182,2200.0,2274.0,2279.0,1288.0,4916.0,-4924.0,-14824.0,833.0,-342.0,-4.0,-536.0,-1265.0,-275.0,32768.0,5552384.0,2242.0,2702.0,0.0
5860740000,0.010267686999779351,97392.9181929182,2215.0,2273.0,2278.0,1287.0,4888.0,-4880.0,-14848.0,825.0,-337.0,8.0,-539.0,-1261.0,-275.0,32768.0,5552384.0,2249.0,2703.0,0.0
5860996000,0.010267686999779351,97392.9181929182,2216.0,2272.0,2277.0,1285.0,4856.0,-4824.0,-14856.0,825.0,-355.0,29.0,-537.0,-1262.0,-279.0,32768.0,5552128.0,2246.0,2704.0,0.0
5861252000,0.010267686999779351,97392.9181929182,2215.0,2272.0,2277.0,1287.0,4860.0,-4788.0,-14808.0,792.0,-337.0,18.0,-537.0,-1267.0,-271.0,32768.0,5552128.0,2245.0,2704.0,0.0
5861508000,0.010267686999779351,97392.9181929182,2209.0,2272.0,2277.0,1288.0,4844.0,-4856.0,-14808.0,734.0,-349.0,37.0,-545.0,-1263.0,-276.0,32768.0,5552640.0,2244.0,2702.0,0.0
5861764000,0.010267481044650379,97394.8717948718,2217.0,2270.0,2279.0,1286.0,4828.0,-4888.0,-14880.0,723.0,-329.0,58.0,-545.0,-1263.0,-276.0,32768.0,5552640.0,2249.0,2703.0,0.0
5862020000,0.010267686999779351,97392.9181929182,2226.0,2272.0,2282.0,1285.0,4800.0,-4932.0,-14864.0,723.0,-349.0,62.0,-537.0,-1267.0,-281.0,32768.0,5551616.0,2252.0,2703.0,0.0
5862276000,0.010267686999779351,97392.9181929182,2223.0,2269.0,2283.0,1286.0,4776.0,-4928.0,-14812.0,697.0,-333.0,78.0,-530.0,-1267.0,-282.0,32768.0,5551616.0,2248.0,2704.0,0.0
5862532000,0.010267686999779351,97392.9181929182,2232.0,2270.0,2283.0,1287.0,4812.0,-4980.0,-14816.0,717.0,-319.0,72.0,-552.0,-1261.0,-282.0,32768.0,5552128.0,2251.0,2703.0,0.0
5862788000,0.010267481044650379,97394.8717948718,2224.0,2270.0,2283.0,1287.0,4820.0,-4968.0,-14848.0,755.0,-313.0,73.0,-534.0,-1267.0,-277.0,32768.0,5552128.0,2246.0,2702.0,0.0
5863044000,0.010267686999779351,97392.9181929182,2227.0,2273.0,2281.0,1289.0,4860.0,-4932.0,-14816.0,804.0,-331.0,61.0,-534.0,-1267.0,-277.0,32768.0,5552128.0,2250.0,2703.0,0.0
5863300000,0.010267686999779351,97392.9181929182,2202.0,2274.0,2280.0,1286.0,4876.0,-4900.0,-14780.0,792.0,-354.0,60.0,-530.0,-1267.0,-276.0,32768.0,5552128.0,2236.0,2698.0,0.0
5863556000,0.010267686999779351,97392.9181929182,2208.0,2275.0,2278.0,1286.0,4892.0,-4888.0,-14792.0,793.0,-331.0,64.0,-524.0,-1263.0,-273.0,32768.0,5552896.0,2246.0,2703.0,0.0
5863812000,0.010267686999779351,97392.9181929182,2219.0,2274.0,2278.0,1283.0,4904.0,-4884.0,-14792.0,761.0,-321.0,36.0,-535.0,-1263.0,-276.0,32768.0,5552896.0,2250.0,2703.0,0.0
5864068000,0.010267686999779351,97392.9181929182,2224.0,2274.0,2277.0,1285.0,4904.0,-4856.0,-14828.0,749.0,-313.0,28.0,-540.0,-1263.0,-278.0,32768.0,5552640.0,2252.0,2703.0,0.0
5864324000,0.010267686999779351,97392.9181929182,2222.0,2276.0,2275.0,1286.0,4920.0,-4840.0,-14876.0,728.0,-295.0,24.0,-540.0,-1263.0,-278.0,32768.0,5552640.0,2248.0,2704.0,0.0
5864580000,0.010267686999779351,97392.9181929182,2233.0,2276.0,2276.0,1287.0,4924.0,-4832.0,-14808.0,706.0,-264.0,35.0,-536.0,-1263.0,-276.0,32768.0,5552896.0,2251.0,2703.0,0.0
5864836000,0.010267686999779351,97392.9181929182,2201.0,2278.0,2279.0,1289.0,4976.0,-4912.0,-14776.0,677.0,-273.0,16.0,-534.0,-1266.0,-277.0,32768.0,5552896.0,2233.0,2695.0,0.0
5865092000,0.010267686999779351,97392.9181929182,2207.0,2278.0,2281.0,1292.0,4964.0,-4904.0,-14760.0,686.0,-287.0,13.0,-533.0,-1263.0,-272.0,32768.0,5553152.0,2245.0,2703.0,0.0
5865348000,0.010267686999779351,97392.9181929182,2217.0,2281.0,2282.0,1293.0,4976.0,-4916.0,-14720.0,734.0,-277.0,-7.0,-537.0,-1268.0,-272.0,32768.0,5553152.0,2250.0,2703.0,0.0
5865604000,0.010267686999779351,97392.9181929182,2216.0,2282.0,2281.0,1295.0,5040.0,-4940.0,-14644.0,744.0,-313.0,12.0,-537.0,-1268.0,-272.0,32768.0,5552640.0,2245.0,2702.0,0.0
5865860000,0.010267686999779351,97392.9181929182,2224.0,2283.0,2281.0,1296.0,5080.0,-4920.0,-14668.0,731.0,-340.0,3.0,-529.0,-1263.0,-276.0,32768.0,5552640.0,2250.0,2703.0,0.0
5866116000,0.010267686999779351,97392.9181929182,2228.0,2283.0,2281.0,1295.0,5092.0,-4960.0,-14640.0,720.0,-365.0,-9.0,-531.0,-1267.0,-275.0,32768.0,5552896.0,2252.0,2703.0,0.0
5866372000,0.010267481044650379,97394.8717948718,2236.0,2283.0,2282.0,1293.0,5060.0,-4996.0,-14656.0,680.0,-389.0,-12.0,-525.0,-1268.0,-281.0,32768.0,5552896.0,2253.0,2703.0,0.0
5866628000,0.010267686999779351,97392.9181929182,2231.0,2282.0,2286.0,1292.0,5048.0,-5024.0,-14748.0,660.0,-377.0,3.0,-525.0,-1268.0,-281.0,32768.0,5552384.0,2247.0,2702.0,0.0
5866884000,0.010267686999779351,97392.9181929182,2200.0,2281.0,2288.0,1290.0,5056.0,-5048.0,-14800.0,675.0,-366.0,-11.0,-542.0,-1266.0,-274.0,32768.0,5552384.0,2231.0,2695.0,0.0
5867140000,0.010267686999779351,97392.9181929182,2202.0,2278.0,2290.0,1286.0,4952.0,-5120.0,-14776.0,695.0,-353.0,23.0,-526.0,-1261.0,-276.0,32768.0,5552640.0,2244.0,2703.0,0.0
5867396000,0.010267686999779351,97392.9181929182,2202.0,2276.0,2293.0,1288.0,4952.0,-5188.0,-14804.0,725.0,-305.0,12.0,-529.0,-1266.0,-276.0,32768.0,5552640.0,2244.0,2704.0,0.0
5867652000,0.010267686999779351,97392.9181929182,2206.0,2275.0,2294.0,1289.0,4900.0,-5164.0,-14736.0,768.0,-299.0,16.0,-537.0,-1260.0,-278.0,32768.0,5552640.0,2243.0,2702.0,0.0
5867908000,0.010267686999779351,97392.9181929182,2216.0,2272.0,2294.0,1290.0,4832.0,-5196.0,-14744.0,800.0,-308.0,8.0,-537.0,-1260.0,-278.0,32768.0,5552640.0,2249.0,2703.0,0.0
5868164000,0.010267686999779351,97392.9181929182,2217.0,2270.0,2293.0,1292.0,4828.0,-5156.0,-14696.0,847.0,-289.0,7.0,-535.0,-1266.0,-277.0,32768.0,5552896.0,2245.0,2702.0,0.0
5868420000,0.010267686999779351,97392.9181929182,2215.0,2270.0,2291.0,1293.0,4848.0,-5116.0,-14660.0,863.0,-339.0,23.0,-535.0,-1270.0,-280.0,32768.0,5552896.0,2245.0,2704.0,0.0
5868676000,0.010267686999779351,97392.9181929182,2223.0,2272.0,2287.0,1297.0,4816.0,-5072.0,-14680.0,863.0,-332.0,17.0,-530.0,-1265.0,-278.0,32768.0,5552640.0,2250.0,2703.0,0.0
5868932000,0.010267686999779351,97392.9181929182,2189.0,2272.0,2288.0,1296.0,4848.0,-5072.0,-14660.0,830.0,-356.0,2.0,-538.0,-1268.0,-281.0,32768.0,5552640.0,2232.0,2695.0,0.0
5869188000,0.010267686999779351,97392.9181929182,2195.0,2274.0,2284.0,1292.0,4884.0,-5036.0,-14668.0,839.0,-374.0,-16.0,-538.0,-1268.0,-281.0,32768.0,5551872.0,2244.0,2703.0,0.0
5869444000,0.010267686999779351,97392.9181929182,2200.0,2273.0,2286.0,1293.0,4892.0,-5008.0,-14700.0,803.0,-370.0,-25.0,-529.0,-1259.0,-283.0,32768.0,5551872.0,2244.0,2704.0,0.0
5869700000,0.010267686999779351,97392.9181929182,2157.0,2276.0,2287.0,1289.0,4880.0,-5044.0,-14724.0,791.0,-382.0,-29.0,-527.0,-1266.0,-271.0,32768.0,5552384.0,2445.0,2684.0,0.0
5869956000,0.010267686999779351,97392.9181929182,2098.0,2274.0,2288.0,1289.0,4940.0,-5044.0,-14732.0,802.0,-371.0,-20.0,-536.0,-1265.0,-278.0,32768.0,5552384.0,2316.0,2696.0,0.0
5870212000,0.010267686999779351,97392.9181929182,2211.0,2278.0,2286.0,1288.0,4964.0,-5020.0,-14792.0,838.0,-347.0,-35.0,-531.0,-1271.0,-279.0,32768.0,5551872.0,2282.0,2703.0,0.0
5870468000,0.010267686999779351,97392.9181929182,2241.0,2276.0,2285.0,1286.0,4912.0,-4996.0,-14860.0,855.0,-342.0,-12.0,-531.0,-1271.0,-279.0,32768.0,5551872.0,2262.0,2704.0,0.0
5870724000,0.010267686999779351,97392.9181929182,2243.0,2276.0,2284.0,1288.0,4936.0,-4984.0,-14824.0,875.0,-342.0,-27.0,-532.0,-1265.0,-280.0,32768.0,5552896.0,2251.0,2702.0,0.0
5870980000,0.010267686999779351,97392.9181929182,2244.0,2278.0,2285.0,1286.0,4952.0,-5004.0,-14788.0,896.0,-317.0,-10.0,-529.0,-1263.0,-280.0,32768.0,5552896.0,2253.0,2703.0,0.0
5871236000,0.010267686999779351,97392.9181929182,2245.0,2276.0,2284.0,1287.0,4964.0,-4944.0,-14824.0,917.0,-324.0,-21.0,-538.0,-1264.0,-278.0,32768.0,5552640.0,2254.0,2703.0,0.0
5871492000,0.010267686999779351,97392.9181929182,2244.0,2277.0,2279.0,1286.0,4968.0,-4868.0,-14848.0,921.0,-328.0,-18.0,-538.0,-1264.0,-278.0,32768.0,5552640.0,2254.0,2703.0,0.0
5871748000,0.010267686999779351,97392.9181929182,2238.0,2277.0,2277.0,1284.0,4972.0,-4892.0,-14820.0,926.0,-329.0,5.0,-533.0,-1262.0,-280.0,32768.0,5552896.0,2247.0,2702.0,0.0
5872004000,0.010267686999779351,97392.9181929182,2194.0,2276.0,2276.0,1288.0,4956.0,-4856.0,-14816.0,872.0,-327.0,-33.0,-537.0,-1261.0,-281.0,32768.0,5552896.0,2453.0,2686.0,0.0
5872260000,0.010267686999779351,97392.9181929182,2174.0,2275.0,2276.0,1288.0,4908.0,-4852.0,-14788.0,837.0,-339.0,-2.0,-533.0,-1263.0,-278.0,32768.0,5552640.0,2344.0,2703.0,0.0
5872516000,0.010267686999779351,97392.9181929182,2274.0,2275.0,2277.0,1287.0,4928.0,-4892.0,-14776.0,771.0,-346.0,-20.0,-533.0,-1269.0,-278.0,32768.0,5552640.0,2296.0,2703.0,0.0
5872772000,0.010267686999779351,97392.9181929182,2280.0,2276.0,2279.0,1288.0,4948.0,-4868.0,-14772.0,783.0,-353.0,-13.0,-533.0,-1269.0,-278.0,32768.0,5552896.0,2266.0,2702.0,0.0
5873028000,0.010267686999779351,97392.9181929182,2236.0,2274.0,2280.0,1290.0,4896.0,-4928.0,-14772.0,755.0,-332.0,-14.0,-534.0,-1265.0,-278.0,32768.0,5552896.0,2237.0,2698.0,0.0
5873284000,0.010267686999779351,97392.9181929182,2219.0,2273.0,2283.0,1290.0,4872.0,-4952.0,-14736.0,755.0,-356.0,-2.0,-533.0,-1262.0,-275.0,32768.0,5552896.0,2241.0,2704.0,0.0
5873540000,0.010267686999779351,97392.9181929182,2215.0,2273.0,2287.0,1290.0,4892.0,-5020.0,-14712.0,769.0,-372.0,-3.0,-531.0,-1267.0,-275.0,32768.0,5552896.0,2243.0,2704.0,0.0
5873796000,0.010267686999779351,97392.9181929182,2159.0,2275.0,2285.0,1292.0,4888.0,-5032.0,-14752.0,776.0,-355.0,-44.0,-527.0,-1266.0,-280.0,32768.0,5553152.0,2444.0,2684.0,0.0
5874052000,0.010267686999779351,97392.9181929182,2147.0,2273.0,2288.0,1294.0,4916.0,-5088.0,-14712.0,805.0,-374.0,-27.0,-527.0,-1266.0,-280.0,32768.0,5553152.0,2340.0,2703.0,0.0
5874308000,0.010267686999779351,97392.9181929182,2260.0,2275.0,2289.0,1292.0,4956.0,-5128.0,-14716.0,801.0,-375.0,-50.0,-529.0,-1267.0,-276.0,32768.0,5552384.0,2293.0,2703.0,0.0
5874564000,0.010267686999779351,97392.9181929182,2279.0,2274.0,2289.0,1289.0,4916.0,-5092.0,-14696.0,856.0,-397.0,-25.0,-530.0,-1263.0,-281.0,32768.0,5552384.0,2267.0,2704.0,0.0
5874820000,0.010267686999779351,97392.9181929182,2264.0,2275.0,2287.0,1287.0,4928.0,-5060.0,-14792.0,868.0,-360.0,-50.0,-534.0,-1263.0,-279.0,32768.0,5552384.0,2254.0,2702.0,0.0
5875076000,0.010267686999779351,97392.9181929182,2246.0,2277.0,2288.0,1287.0,4980.0,-5024.0,-14772.0,889.0,-359.0,-41.0,-537.0,-1264.0,-281.0,32768.0,5552384.0,2247.0,2702.0,0.0
5875332000,0.010267686999779351,97392.9181929182,2246.0,2277.0,2286.0,1285.0,4948.0,-5036.0,-14824.0,871.0,-331.0,-37.0,-537.0,-1264.0,-281.0,32768.0,5552640.0,2251.0,2703.0,0.0
5875588000,0.010267686999779351,97392.9181929182,2234.0,2277.0,2284.0,1289.0,4944.0,-5032.0,-14744.0,872.0,-321.0,-40.0,-536.0,-1271.0,-279.0,32768.0,5552640.0,2248.0,2704.0,0.0
5875844000,0.010267686999779351,97392.9181929182,2238.0,2276.0,2286.0,1290.0,4940.0,-5056.0,-14724.0,859.0,-335.0,-3.0,-539.0,-1265.0,-282.0,32768.0,5553152.0,2251.0,2703.0,0.0
5876100000,0.010267686999779351,97392.9181929182,2206.0,2274.0,2286.0,1288.0,4932.0,-5036.0,-14732.0,861.0,-303.0,-36.0,-535.0,-1271.0,-278.0,32768.0,5553152.0,2236.0,2698.0,0.0
5876356000,0.010267686999779351,97392.9181929182,2210.0,2275.0,2287.0,1288.0,4944.0,-5068.0,-14756.0,861.0,-303.0,-36.0,-535.0,-1271.0,-278.0,32417.0,5553152.0,2246.0,2703.0,0.0
5876612000,0.010267686999779351,97392.9181929182,2197.0,2275.0,2287.0,1289.0,4916.0,-5068.0,-14764.0,896.0,-327.0,-33.0,-539.0,-1266.0,-277.0,32417.0,5553152.0,2235.0,2700.0,0.0
5876868000,0.010267686999779351,97392.9181929182,2206.0,2275.0,2286.0,1291.0,4884.0,-5048.0,-14680.0,922.0,-342.0,-28.0,-538.0,-1261.0,-278.0,32417.0,5552128.0,2246.0,2703.0,0.0
5877124000,0.010267686999779351,97392.9181929182,2188.0,2272.0,2284.0,1290.0,4864.0,-4980.0,-14708.0,957.0,-329.0,-46.0,-527.0,-1267.0,-277.0,32417.0,5552128.0,2234.0,2698.0,0.0
5877380000,0.010267686999779351,97392.9181929182,2199.0,2274.0,2281.0,1288.0,4916.0,-4972.0,-14812.0,947.0,-339.0,-45.0,-529.0,-1265.0,-273.0,32417.0,5552640.0,2245.0,2703.0,0.0
5877636000,0.010267686999779351,97392.9181929182,2199.0,2276.0,2281.0,1289.0,4916.0,-4948.0,-14812.0,928.0,-350.0,-68.0,-529.0,-1265.0,-273.0,32417.0,5552640.0,2244.0,2704.0,0.0
5877892000,0.010267686999779351,97392.9181929182,2216.0,2275.0,2282.0,1286.0,4912.0,-4936.0,-14808.0,905.0,-363.0,-45.0,-528.0,-1263.0,-279.0,32417.0,5552896.0,2250.0,2703.0,0.0
5878148000,0.010267686999779351,97392.9181929182,2194.0,2273.0,2285.0,1286.0,4888.0,-5000.0,-14752.0,894.0,-370.0,-44.0,-525.0,-1261.0,-285.0,32417.0,5552896.0,2236.0,2698.0,0.0
5878404000,0.010267686999779351,97392.9181929182,2205.0,2273.0,2283.0,1289.0,4928.0,-5048.0,-14764.0,875.0,-338.0,-39.0,-535.0,-1267.0,-273.0,32417.0,5552640.0,2246.0,2703.0,0.0
5878660000,0.010267686999779351,97392.9181929182,2216.0,2273.0,2285.0,1290.0,4896.0,-5008.0,-14800.0,930.0,-365.0,-24.0,-530.0,-1262.0,-282.0,32417.0,5552640.0,2250.0,2703.0,0.0
5878916000,0.010267686999779351,97392.9181929182,2216.0,2273.0,2284.0,1291.0,4884.0,-4928.0,-14736.0,948.0,-357.0,-28.0,-530.0,-1262.0,-282.0,32417.0,5552640.0,2246.0,2702.0,0.0
5879172000,0.010267686999779351,97392.9181929182,2217.0,2275.0,2284.0,1290.0,4948.0,-4960.0,-14704.0,939.0,-335.0,-42.0,-538.0,-1266.0,-275.0,32417.0,5552640.0,2245.0,2704.0,0.0
5879428000,0.010267686999779351,97392.9181929182,2215.0,2274.0,2283.0,1288.0,4892.0,-5016.0,-14692.0,919.0,-342.0,-10.0,-535.0,-1268.0,-278.0,32417.0,5552384.0,2245.0,2704.0,0.0
5879684000,0.010267481044650379,97394.8717948718,2215.0,2274.0,2284.0,1288.0,4944.0,-5020.0,-14788.0,878.0,-336.0,-27.0,-533.0,-1267.0,-277.0,32417.0,5552384.0,2245.0,2704.0,0.0
5879940000,0.010267686999779351,97392.9181929182,2212.0,2275.0,2285.0,1288.0,4948.0,-5004.0,-14772.0,881.0,-317.0,-30.0,-536.0,-1265.0,-278.0,32417.0,5552384.0,2243.0,2702.0,0.0
5880196000,0.010267686999779351,97392.9181929182,2191.0,2275.0,2283.0,1286.0,4956.0,-4996.0,-14768.0,883.0,-340.0,-43.0,-536.0,-1265.0,-278.0,32417.0,5552384.0,2233.0,2698.0,0.0
5880452000,0.010267686999779351,97392.9181929182,2190.0,2275.0,2283.0,1286.0,4968.0,-4944.0,-14784.0,893.0,-332.0,-24.0,-535.0,-1265.0,-278.0,32417.0,5552896.0,2240.0,2704.0,0.0
5880708000,0.010267686999779351,97392.9181929182,2195.0,2278.0,2285.0,1287.0,4964.0,-4984.0,-14764.0,865.0,-355.0,-36.0,-527.0,-1267.0,-276.0,32417.0,5552896.0,2242.0,2704.0,0.0
5880964000,0.010267686999779351,97392.9181929182,2211.0,2277.0,2281.0,1289.0,4968.0,-4944.0,-14764.0,893.0,-324.0,-48.0,-533.0,-1261.0,-278.0,32417.0,5552640.0,2249.0,2703.0,0.0
5881220000,0.010267686999779351,97392.9181929182,2224.0,2279.0,2280.0,1288.0,4988.0,-4932.0,-14752.0,886.0,-320.0,-35.0,-533.0,-1261.0,-278.0,32417.0,5552640.0,2251.0,2703.0,0.0
5881476000,0.010267686999779351,97392.9181929182,2235.0,2279.0,2279.0,1290.0,5036.0,-4912.0,-14732.0,912.0,-354.0,-22.0,-526.0,-1264.0,-277.0,32417.0,5552128.0,2253.0,2703.0,0.0
5881732000,0.010267686999779351,97392.9181929182,2233.0,2278.0,2279.0,1292.0,5016.0,-4864.0,-14704.0,921.0,-322.0,-24.0,-528.0,-1266.0,-277.0,32417.0,5552128.0,2249.0,2704.0,0.0
5881988000,0.010267686999779351,97392.9181929182,2237.0,2277.0,2279.0,1291.0,5008.0,-4900.0,-14732.0,903.0,-345.0,-22.0,-530.0,-1265.0,-282.0,32417.0,5552640.0,2251.0,2703.0,0.0
5882244000,0.010267686999779351,97392.9181929182,2206.0,2277.0,2279.0,1289.0,5020.0,-4896.0,-14720.0,874.0,-336.0,-19.0,-531.0,-1262.0,-277.0,32417.0,5552640.0,2236.0,2698.0,0.0
5882500000,0.010267686999779351,97392.9181929182,2210.0,2278.0,2279.0,1289.0,4960.0,-4900.0,-14736.0,842.0,-350.0,-9.0,-531.0,-1262.0,-277.0,32417.0,5552128.0,2246.0,2703.0,0.0
5882756000,0.010267686999779351,97392.9181929182,2213.0,2276.0,2280.0,1288.0,4968.0,-4884.0,-14768.0,831.0,-366.0,2.0,-533.0,-1265.0,-276.0,32417.0,5552128.0,2245.0,2704.0,0.0
5883012000,0.010267686999779351,97392.9181929182,2222.0,2275.0,2280.0,1286.0,4948.0,-4908.0,-14768.0,836.0,-363.0,-17.0,-536.0,-1265.0,-276.0,32417.0,5552896.0,2250.0,2703.0,0.0
5883268000,0.010267686999779351,97392.9181929182,2227.0,2275.0,2281.0,1287.0,4968.0,-4964.0,-14808.0,819.0,-382.0,-17.0,-532.0,-1267.0,-276.0,32417.0,5552896.0,2252.0,2703.0,0.0
5883524000,0.010267686999779351,97392.9181929182,2227.0,2274.0,2281.0,1286.0,4924.0,-4956.0,-14796.0,836.0,-378.0,-34.0,-538.0,-1264.0,-272.0,32417.0,5552640.0,2247.0,2702.0,0.0
5883780000,0.010267686999779351,97392.9181929182,2234.0,2274.0,2284.0,1285.0,4908.0,-4980.0,-14832.0,802.0,-385.0,-38.0,-538.0,-1264.0,-272.0,32417.0,5552640.0,2251.0,2703.0,0.0
5884036000,0.010267686999779351,97392.9181929182,2228.0,2272.0,2282.0,1286.0,4888.0,-5004.0,-14800.0,781.0,-358.0,-30.0,-547.0,-1269.0,-279.0,32417.0,5552896.0,2248.0,2704.0,0.0
5884292000,0.010267686999779351,97392.9181929182,2215.0,2271.0,2285.0,1288.0,4880.0,-5040.0,-14756.0,775.0,-356.0,-19.0,-527.0,-1265.0,-278.0,32417.0,5552896.0,2241.0,2699.0,0.0
5884548000,0.010267686999779351,97392.9181929182,2216.0,2271.0,2285.0,1288.0,4892.0,-5032.0,-14760.0,836.0,-345.0,-18.0,-533.0,-1264.0,-277.0,32417.0,5552384.0,2248.0,2703.0,0.0
5884804000,0.010267686999779351,97392.9181929182,2227.0,2273.0,2285.0,1290.0,4868.0,-5000.0,-14820.0,857.0,-351.0,-19.0,-526.0,-1266.0,-278.0,32417.0,5552384.0,2251.0,2703.0,0.0
5885060000,0.010267686999779351,97392.9181929182,2236.0,2274.0,2285.0,1288.0,4880.0,-5012.0,-14780.0,887.0,-329.0,-11.0,-526.0,-1266.0,-278.0,32417.0,5552640.0,2253.0,2703.0,0.0
5885316000,0.010267686999779351,97392.9181929182,2226.0,2273.0,2282.0,1287.0,4892.0,-4976.0,-14784.0,902.0,-319.0,-34.0,-532.0,-1263.0,-277.0,32417.0,5552640.0,2243.0,2699.0,0.0
5885572000,0.010267686999779351,97392.9181929182,2228.0,2274.0,2282.0,1286.0,4888.0,-4928.0,-14816.0,889.0,-301.0,-26.0,-526.0,-1265.0,-280.0,32417.0,5552896.0,2249.0,2703.0,0.0
5885828000,0.010267686999779351,97392.9181929182,2228.0,2274.0,2280.0,1286.0,4892.0,-4904.0,-14820.0,920.0,-307.0,-25.0,-535.0,-1259.0,-274.0,32417.0,5552896.0,2247.0,2704.0,0.0
5886084000,0.010267686999779351,97392.9181929182,2215.0,2276.0,2279.0,1287.0,4952.0,-4936.0,-14828.0,906.0,-298.0,-55.0,-535.0,-1259.0,-274.0,32417.0,5553152.0,2244.0,2702.0,0.0
5886340000,0.010267686999779351,97392.9181929182,2224.0,2276.0,2278.0,1290.0,4936.0,-4896.0,-14796.0,889.0,-302.0,-53.0,-539.0,-1267.0,-278.0,32417.0,5553152.0,2250.0,2703.0,0.0
5886596000,0.010267686999779351,97392.9181929182,2229.0,2276.0,2277.0,1287.0,4944.0,-4896.0,-14796.0,902.0,-337.0,-49.0,-537.0,-1262.0,-278.0,32417.0,5552896.0,2252.0,2703.0,0.0
5886852000,0.010267686999779351,97392.9181929182,2224.0,2276.0,2279.0,1289.0,4948.0,-4888.0,-14816.0,877.0,-310.0,-46.0,-536.0,-1264.0,-278.0,32417.0,5552896.0,2248.0,2704.0,0.0
5887108000,0.010267686999779351,97392.9181929182,2219.0,2278.0,2278.0,1289.0,5012.0,-4908.0,-14752.0,866.0,-329.0,-46.0,-541.0,-1265.0,-276.0,32417.0,5552384.0,2245.0,2702.0,0.0
5887364000,0.010267686999779351,97392.9181929182,2215.0,2277.0,2280.0,1290.0,4992.0,-4888.0,-14760.0,884.0,-351.0,-32.0,-541.0,-1265.0,-276.0,32417.0,5552384.0,2243.0,2702.0,0.0
5887620000,0.010267686999779351,97392.9181929182,2210.0,2278.0,2280.0,1289.0,5000.0,-4936.0,-14780.0,844.0,-323.0,-35.0,-534.0,-1263.0,-284.0,32417.0,5553152.0,2244.0,2704.0,0.0
5887876000,0.010267686999779351,97392.9181929182,2207.0,2276.0,2283.0,1289.0,5020.0,-4964.0,-14716.0,861.0,-339.0,-51.0,-532.0,-1271.0,-276.0,32417.0,5553152.0,2244.0,2704.0,0.0
5888132000,0.010267686999779351,97392.9181929182,2218.0,2276.0,2284.0,1289.0,4956.0,-4996.0,-14748.0,874.0,-324.0,-22.0,-530.0,-1263.0,-276.0,32417.0,5552640.0,2250.0,2703.0,0.0
5888388000,0.010267686999779351,97392.9181929182,2225.0,2277.0,2284.0,1290.0,4976.0,-4984.0,-14724.0,871.0,-332.0,-21.0,-527.0,-1264.0,-275.0,32417.0,5552640.0,2252.0,2703.0,0.0
5888644000,0.010267686999779351,97392.9181929182,2220.0,2277.0,2284.0,1291.0,4980.0,-5004.0,-14724.0,876.0,-353.0,-39.0,-527.0,-1264.0,-275.0,32417.0,5553152.0,2246.0,2702.0,0.0
5888900000,0.010267686999779351,97392.9181929182,2219.0,2277.0,2283.0,1292.0,4992.0,-4968.0,-14768.0,876.0,-350.0,-45.0,-523.0,-1269.0,-278.0,32417.0,5553152.0,2245.0,2704.0,0.0
5889156000,0.010267686999779351,97392.9181929182,2225.0,2275.0,2285.0,1290.0,4948.0,-4984.0,-14704.0,871.0,-356.0,-45.0,-527.0,-1267.0,-281.0,32417.0,5552384.0,2250.0,2703.0,0.0
5889412000,0.010267686999779351,97392.9181929182,2205.0,2275.0,2284.0,1286.0,4916.0,-5000.0,-14736.0,874.0,-369.0,-40.0,-530.0,-1273.0,-275.0,32417.0,5552384.0,2237.0,2700.0,0.0
5889668000,0.010267686999779351,97392.9181929182,2195.0,2274.0,2282.0,1289.0,4924.0,-5008.0,-14796.0,887.0,-360.0,-44.0,-533.0,-1264.0,-286.0,32417.0,5552896.0,2240.0,2702.0,0.0
5889924000,0.010267686999779351,97392.9181929182,2203.0,2273.0,2283.0,1288.0,4908.0,-4984.0,-14784.0,848.0,-342.0,-43.0,-533.0,-1264.0,-286.0,32417.0,5552896.0,2243.0,2704.0,0.0
5890180000,0.010267686999779351,97392.9181929182,2216.0,2273.0,2284.0,1288.0,4876.0,-4988.0,-14792.0,858.0,-334.0,-31.0,-535.0,-1265.0,-273.0,32417.0,5552896.0,2249.0,2703.0,0.0
5890436000,0.010267686999779351,97392.9181929182,2200.0,2272.0,2284.0,1288.0,4892.0,-5048.0,-14724.0,848.0,-330.0,-21.0,-537.0,-1268.0,-279.0,32417.0,5552896.0,2237.0,2700.0,0.0
5890692000,0.010267686999779351,97392.9181929182,2207.0,2273.0,2285.0,1288.0,4880.0,-5052.0,-14752.0,877.0,-331.0,-26.0,-535.0,-1264.0,-281.0,32417.0,5552896.0,2246.0,2703.0,0.0
5890948000,0.010267686999779351,97392.9181929182,2217.0,2273.0,2285.0,1290.0,4884.0,-5036.0,-14796.0,933.0,-334.0,-21.0,-535.0,-1263.0,-281.0,32417.0,5552896.0,2250.0,2703.0,0.0
5891204000,0.010267686999779351,97392.9181929182,2226.0,2273.0,2285.0,1289.0,4996.0,-5012.0,-14760.0,952.0,-337.0,-16.0,-535.0,-1263.0,-281.0,32417.0,5552640.0,2252.0,2703.0,0.0
5891460000,0.010267686999779351,97392.9181929182,2223.0,2274.0,2281.0,1290.0,4952.0,-4984.0,-14712.0,977.0,-365.0,-31.0,-533.0,-1263.0,-279.0,32417.0,5552640.0,2248.0,2704.0,0.0
5891716000,0.010267686999779351,97392.9181929182,2232.0,2276.0,2280.0,1293.0,4924.0,-4916.0,-14716.0,930.0,-356.0,-47.0,-553.0,-1259.0,-273.0,32417.0,5552896.0,2251.0,2703.0,0.0
5891972000,0.010267686999779351,97392.9181929182,2238.0,2274.0,2278.0,1288.0,4924.0,-4896.0,-14748.0,934.0,-343.0,-42.0,-527.0,-1269.0,-276.0,32417.0,5552896.0,2253.0,2703.0,0.0
5892228000,0.010267686999779351,97392.9181929182,2232.0,2277.0,2280.0,1291.0,4944.0,-4912.0,-14780.0,901.0,-349.0,-38.0,-527.0,-1269.0,-276.0,32417.0,5552384.0,2247.0,2702.0,0.0
5892484000,0.010267686999779351,97392.9181929182,2205.0,2275.0,2278.0,1289.0,4940.0,-4892.0,-14768.0,918.0,-334.0,-61.0,-530.0,-1264.0,-280.0,32417.0,5552384.0,2236.0,2700.0,0.0
5892740000,0.010267686999779351,97392.9181929182,2210.0,2277.0,2280.0,1290.0,4940.0,-4860.0,-14768.0,914.0,-347.0,-48.0,-529.0,-1265.0,-280.0,32417.0,5552896.0,2246.0,2703.0,0.0
5892996000,0.010267686999779351,97392.9181929182,2212.0,2275.0,2276.0,1286.0,4928.0,-4852.0,-14780.0,920.0,-353.0,-59.0,-531.0,-1267.0,-276.0,32417.0,5552896.0,2245.0,2704.0,0.0
5893252000,0.010267686999779351,97392.9181929182,2220.0,2277.0,2278.0,1285.0,4956.0,-4848.0,-14856.0,942.0,-342.0,-30.0,-535.0,-1263.0,-277.0,32417.0,5552896.0,2250.0,2703.0,0.0
5893508000,0.010267686999779351,97392.9181929182,2210.0,2278.0,2275.0,1283.0,4952.0,-4812.0,-14888.0,942.0,-342.0,-30.0,-535.0,-1263.0,-277.0,32417.0,5552896.0,2242.0,2699.0,0.0
5893764000,0.010267686999779351,97392.9181929182,2216.0,2278.0,2276.0,1283.0,4984.0,-4792.0,-14884.0,923.0,-351.0,-53.0,-534.0,-1266.0,-272.0,32417.0,5552384.0,2248.0,2703.0,0.0
5894020000,0.010267686999779351,97392.9181929182,2221.0,2278.0,2276.0,1281.0,4944.0,-4812.0,-14900.0,925.0,-332.0,-36.0,-537.0,-1269.0,-280.0,32417.0,5552384.0,2247.0,2704.0,0.0
5894276000,0.010267686999779351,97392.9181929182,2212.0,2277.0,2274.0,1279.0,4928.0,-4776.0,-14856.0,931.0,-321.0,-34.0,-530.0,-1262.0,-275.0,32417.0,5552384.0,2242.0,2701.0,0.0
5894532000,0.010267686999779351,97392.9181929182,2190.0,2276.0,2274.0,1283.0,4956.0,-4808.0,-14900.0,947.0,-302.0,-24.0,-538.0,-1267.0,-272.0,32417.0,5552384.0,2234.0,2700.0,0.0
5894788000,0.010267686999779351,97392.9181929182,2201.0,2275.0,2275.0,1287.0,4920.0,-4788.0,-14860.0,949.0,-298.0,-38.0,-538.0,-1267.0,-272.0,32417.0,5552640.0,2245.0,2703.0,0.0
5895044000,0.010267686999779351,97392.9181929182,2208.0,2272.0,2277.0,1288.0,4868.0,-4768.0,-14784.0,891.0,-302.0,-34.0,-534.0,-1267.0,-274.0,32417.0,5552640.0,2245.0,2704.0,0.0
5895300000,0.010267686999779351,97392.9181929182,2219.0,2273.0,2279.0,1290.0,4804.0,-4844.0,-14744.0,860.0,-310.0,-34.0,-536.0,-1265.0,-281.0,32417.0,5552640.0,2250.0,2703.0,0.0
5895556000,0.010267686999779351,97392.9181929182,2203.0,2269.0,2277.0,1289.0,4844.0,-4848.0,-14768.0,840.0,-333.0,-13.0,-530.0,-1266.0,-277.0,32417.0,5552640.0,2238.0,2700.0,0.0
5895812000,0.010267686999779351,97392.9181929182,2208.0,2269.0,2280.0,1287.0,4816.0,-4864.0,-14748.0,833.0,-340.0,-23.0,-528.0,-1265.0,-277.0,32417.0,5552640.0,2246.0,2703.0,0.0
5896068000,0.010267686999779351,97392.9181929182,2173.0,2268.0,2281.0,1290.0,4812.0,-4876.0,-14752.0,827.0,-342.0,-23.0,-528.0,-1265.0,-277.0,32417.0,5552640.0,2452.0,2686.0,0.0
5896324000,0.010267686999779351,97392.9181929182,2163.0,2271.0,2280.0,1289.0,4820.0,-4876.0,-14704.0,817.0,-379.0,-39.0,-542.0,-1262.0,-279.0,32417.0,5553152.0,2344.0,2703.0,0.0
5896580000,0.010267686999779351,97392.9181929182,2261.0,2272.0,2280.0,1288.0,4860.0,-4888.0,-14772.0,811.0,-376.0,-45.0,-526.0,-1268.0,-279.0,32417.0,5553152.0,2290.0,2704.0,0.0
5896836000,0.010267686999779351,97392.9181929182,2269.0,2272.0,2279.0,1286.0,4852.0,-4932.0,-14840.0,823.0,-372.0,-57.0,-530.0,-1270.0,-273.0,32417.0,5553152.0,2264.0,2702.0,0.0
5897092000,0.010267481044650379,97394.8717948718,2269.0,2272.0,2281.0,1282.0,4880.0,-4904.0,-14868.0,803.0,-356.0,-47.0,-530.0,-1270.0,-273.0,32417.0,5553152.0,2259.0,2703.0,0.0
5897348000,0.010267686999779351,97392.9181929182,2261.0,2273.0,2280.0,1283.0,4872.0,-4928.0,-14872.0,804.0,-353.0,-60.0,-543.0,-1268.0,-285.0,32417.0,5553152.0,2256.0,2703.0,0.0
5897604000,0.010267686999779351,97392.9181929182,2246.0,2272.0,2281.0,1281.0,4900.0,-4904.0,-14876.0,822.0,-333.0,-36.0,-530.0,-1271.0,-277.0,32417.0,5553152.0,2247.0,2701.0,0.0
5897860000,0.010267686999779351,97392.9181929182,2245.0,2274.0,2282.0,1285.0,4872.0,-4948.0,-14868.0,813.0,-317.0,-33.0,-533.0,-1271.0,-278.0,32417.0,5552896.0,2251.0,2703.0,0.0
5898116000,0.010267686999779351,97392.9181929182,2240.0,2276.0,2284.0,1285.0,4872.0,-4912.0,-14872.0,805.0,-301.0,-12.0,-541.0,-1266.0,-275.0,32417.0,5552896.0,2252.0,2703.0,0.0
5898372000,0.010267686999779351,97392.9181929182,2232.0,2274.0,2282.0,1290.0,4916.0,-4948.0,-14764.0,840.0,-289.0,-10.0,-541.0,-1266.0,-275.0,32417.0,5552384.0,2247.0,2702.0,0.0
5898628000,0.010267686999779351,97392.9181929182,2227.0,2275.0,2282.0,1293.0,4896.0,-4940.0,-14748.0,883.0,-294.0,0.0,-536.0,-1271.0,-278.0,32417.0,5552384.0,2246.0,2704.0,0.0
5898884000,0.010267686999779351,97392.9181929182,2229.0,2275.0,2281.0,1292.0,4916.0,-4912.0,-14668.0,936.0,-294.0,-18.0,-531.0,-1268.0,-279.0,32417.0,5552896.0,2250.0,2703.0,0.0
5899140000,0.010267686999779351,97392.9181929182,2229.0,2275.0,2281.0,1292.0,4952.0,-4880.0,-14712.0,960.0,-323.0,-11.0,-534.0,-1264.0,-279.0,32417.0,5552896.0,2250.0,2703.0,0.0
5899396000,0.010267686999779351,97392.9181929182,2215.0,2276.0,2277.0,1289.0,4960.0,-4828.0,-14768.0,925.0,-354.0,-29.0,-534.0,-1265.0,-284.0,32417.0,5553152.0,2244.0,2702.0,0.0
5899652000,0.010267686999779351,97392.9181929182,2223.0,2276.0,2275.0,1289.0,4892.0,-4812.0,-14776.0,897.0,-365.0,-68.0,-534.0,-1265.0,-284.0,32417.0,5553152.0,2250.0,2703.0,0.0
5899908000,0.010267686999779351,97392.9181929182,2221.0,2276.0,2276.0,1284.0,4940.0,-4816.0,-14836.0,877.0,-370.0,-81.0,-523.0,-1266.0,-283.0,32417.0,5552896.0,2246.0,2704.0,0.0
5900164000,0.010267686999779351,97392.9181929182,2219.0,2276.0,2275.0,1282.0,4924.0,-4820.0,-14872.0,868.0,-370.0,-74.0,-527.0,-1265.0,-275.0,32417.0,5552896.0,2246.0,2704.0,0.0
5900420000,0.010267686999779351,97392.9181929182,2216.0,2276.0,2277.0,1285.0,4924.0,-4836.0,-14892.0,879.0,-356.0,-52.0,-530.0,-1257.0,-275.0,32417.0,5552896.0,2243.0,2702.0,0.0
5900676000,0.010267686999779351,97392.9181929182,2197.0,2275.0,2277.0,1286.0,4928.0,-4824.0,-14880.0,869.0,-341.0,-29.0,-529.0,-1261.0,-281.0,32417.0,5552896.0,2235.0,2700.0,0.0
5900932000,0.010267686999779351,97392.9181929182,2206.0,2276.0,2278.0,1284.0,4900.0,-4836.0,-14856.0,895.0,-323.0,-18.0,-529.0,-1261.0,-281.0,32417.0,5553152.0,2245.0,2703.0,0.0
5901188000,0.010267686999779351,97392.9181929182,2210.0,2275.0,2278.0,1287.0,4884.0,-4828.0,-14848.0,899.0,-340.0,-13.0,-528.0,-1269.0,-279.0,32417.0,5553152.0,2245.0,2704.0,0.0
5901444000,0.010267686999779351,97392.9181929182,2220.0,2274.0,2278.0,1286.0,4916.0,-4836.0,-14832.0,897.0,-299.0,-23.0,-541.0,-1267.0,-279.0,32417.0,5552896.0,2250.0,2703.0,0.0
5901700000,0.010267686999779351,97392.9181929182,2202.0,2274.0,2277.0,1286.0,4912.0,-4816.0,-14848.0,913.0,-334.0,-16.0,-540.0,-1265.0,-278.0,32417.0,5552896.0,2237.0,2700.0,0.0
5901956000,0.010267686999779351,97392.9181929182,2213.0,2275.0,2276.0,1288.0,4868.0,-4840.0,-14800.0,866.0,-337.0,-29.0,-540.0,-1265.0,-278.0,32417.0,5553152.0,2247.0,2703.0,0.0
5902212000,0.010267481044650379,97394.8717948718,2215.0,2274.0,2276.0,1290.0,4896.0,-4868.0,-14776.0,834.0,-327.0,-24.0,-535.0,-1268.0,-277.0,32417.0,5553152.0,2245.0,2704.0,0.0
5902468000,0.010267686999779351,97392.9181929182,2223.0,2274.0,2277.0,1289.0,4880.0,-4836.0,-14780.0,828.0,-331.0,-23.0,-534.0,-1263.0,-276.0,32417.0,5552640.0,2250.0,2703.0,0.0
5902724000,0.010267686999779351,97392.9181929182,2228.0,2275.0,2279.0,1286.0,4868.0,-4860.0,-14832.0,798.0,-357.0,-22.0,-528.0,-1268.0,-278.0,32417.0,5552640.0,2252.0,2703.0,0.0
5902980000,0.010267481044650379,97394.8717948718,2235.0,2273.0,2278.0,1287.0,4884.0,-4844.0,-14812.0,788.0,-353.0,-37.0,-526.0,-1266.0,-279.0,32417.0,5553152.0,2253.0,2703.0,0.0
5903236000,0.010267686999779351,97392.9181929182,2239.0,2274.0,2279.0,1288.0,4876.0,-4812.0,-14848.0,805.0,-345.0,-34.0,-526.0,-1266.0,-279.0,32417.0,5553152.0,2253.0,2703.0,0.0
5903492000,0.010267686999779351,97392.9181929182,2235.0,2275.0,2276.0,1287.0,4904.0,-4860.0,-14824.0,820.0,-348.0,-36.0,-528.0,-1267.0,-272.0,32417.0,5552640.0,2247.0,2702.0,0.0
5903748000,0.010267686999779351,97392.9181929182,2239.0,2276.0,2279.0,1285.0,4920.0,-4856.0,-14768.0,837.0,-352.0,-42.0,-522.0,-1263.0,-278.0,32417.0,5552640.0,2251.0,2703.0,0.0
5904004000,0.010267686999779351,97392.9181929182,2242.0,2276.0,2276.0,1287.0,4924.0,-4840.0,-14784.0,855.0,-346.0,-19.0,-532.0,-1262.0,-277.0,32417.0,5553408.0,2253.0,2703.0,0.0
5904260000,0.010267686999779351,97392.9181929182,2243.0,2276.0,2278.0,1286.0,4932.0,-4864.0,-14784.0,854.0,-337.0,-24.0,-537.0,-1268.0,-276.0,32417.0,5553408.0,2253.0,2703.0,0.0
5904516000,0.010267686999779351,97392.9181929182,2235.0,2274.0,2279.0,1286.0,4944.0,-4852.0,-14852.0,874.0,-340.0,-27.0,-537.0,-1268.0,-276.0,32417.0,5552640.0,2247.0,2702.0,0.0
5904772000,0.010267686999779351,97392.9181929182,2226.0,2274.0,2277.0,1287.0,4960.0,-4884.0,-14860.0,838.0,-332.0,-29.0,-538.0,-1262.0,-280.0,32417.0,5552640.0,2243.0,2701.0,0.0
5905028000,0.010267686999779351,97392.9181929182,2215.0,2276.0,2278.0,1286.0,4944.0,-4820.0,-14776.0,854.0,-358.0,-22.0,-532.0,-1261.0,-275.0,32417.0,5552896.0,2244.0,2704.0,0.0
5905284000,0.010267686999779351,97392.9181929182,2209.0,2275.0,2276.0,1287.0,4936.0,-4868.0,-14772.0,839.0,-351.0,-37.0,-538.0,-1265.0,-274.0,32417.0,5552896.0,2244.0,2704.0,0.0
5905540000,0.010267686999779351,97392.9181929182,2205.0,2276.0,2277.0,1286.0,4976.0,-4844.0,-14780.0,852.0,-359.0,-37.0,-535.0,-1273.0,-278.0,32417.0,5553152.0,2244.0,2704.0,0.0
5905796000,0.010267686999779351,97392.9181929182,2226.0,2276.0,2277.0,1286.0,4968.0,-4856.0,-14820.0,834.0,-361.0,-28.0,-535.0,-1273.0,-278.0,32417.0,5553152.0,2256.0,2703.0,0.0
5906052000,0.010267686999779351,97392.9181929182,2242.0,2275.0,2276.0,1288.0,4924.0,-4852.0,-14760.0,843.0,-346.0,-12.0,-543.0,-1259.0,-283.0,32417.0,5552896.0,2255.0,2703.0,0.0
5906308000,0.010267686999779351,97392.9181929182,2236.0,2274.0,2277.0,1288.0,4876.0,-4868.0,-14744.0,846.0,-347.0,-33.0,-525.0,-1259.0,-275.0,32417.0,5552896.0,2249.0,2704.0,0.0
5906564000,0.010267686999779351,97392.9181929182,2226.0,2273.0,2279.0,1290.0,4884.0,-4896.0,-14744.0,826.0,-351.0,-44.0,-536.0,-1266.0,-282.0,32417.0,5553664.0,2245.0,2702.0,0.0
5906820000,0.010267686999779351,97392.9181929182,2203.0,2273.0,2279.0,1289.0,4872.0,-4880.0,-14752.0,782.0,-352.0,-14.0,-536.0,-1266.0,-282.0,32417.0,5553664.0,2235.0,2700.0,0.0
5907076000,0.010267686999779351,97392.9181929182,2210.0,2275.0,2279.0,1286.0,4912.0,-4888.0,-14816.0,813.0,-330.0,-24.0,-531.0,-1269.0,-275.0,32417.0,5553152.0,2246.0,2703.0,0.0
5907332000,0.010267686999779351,97392.9181929182,2212.0,2273.0,2279.0,1288.0,4836.0,-4928.0,-14768.0,808.0,-338.0,-22.0,-522.0,-1260.0,-277.0,32417.0,5553152.0,2245.0,2704.0,0.0
5907588000,0.010267686999779351,97392.9181929182,2221.0,2271.0,2281.0,1287.0,4872.0,-4912.0,-14812.0,820.0,-337.0,-28.0,-536.0,-1261.0,-280.0,32417.0,5552640.0,2250.0,2703.0,0.0
5907844000,0.010267686999779351,97392.9181929182,2227.0,2272.0,2280.0,1287.0,4876.0,-4980.0,-14820.0,862.0,-310.0,-15.0,-530.0,-1266.0,-279.0,32417.0,5552640.0,2252.0,2703.0,0.0
5908100000,0.010267481044650379,97394.8717948718,2234.0,2273.0,2279.0,1286.0,4860.0,-4912.0,-14844.0,870.0,-339.0,-25.0,-530.0,-1266.0,-279.0,32417.0,5553152.0,2253.0,2703.0,0.0
5908356000,0.010267686999779351,97392.9181929182,2232.0,2272.0,2278.0,1287.0,4908.0,-4848.0,-14820.0,870.0,-335.0,-29.0,-531.0,-1265.0,-274.0,32417.0,5553152.0,2247.0,2702.0,0.0
5908612000,0.010267686999779351,97392.9181929182,2233.0,2273.0,2276.0,1287.0,4888.0,-4824.0,-14808.0,856.0,-344.0,-32.0,-539.0,-1263.0,-276.0,32417.0,5553152.0,2250.0,2703.0,0.0
5908868000,0.010267686999779351,97392.9181929182,2219.0,2274.0,2277.0,1286.0,4932.0,-4840.0,-14764.0,862.0,-339.0,-16.0,-535.0,-1269.0,-281.0,32417.0,5553152.0,2244.0,2701.0,0.0
5909124000,0.010267686999779351,97392.9181929182,2215.0,2274.0,2276.0,1289.0,4900.0,-4832.0,-14820.0,831.0,-339.0,-22.0,-541.0,-1272.0,-280.0,32417.0,5552384.0,2243.0,2702.0,0.0
5909380000,0.010267686999779351,97392.9181929182,2179.0,2274.0,2276.0,1288.0,4944.0,-4836.0,-14820.0,820.0,-340.0,-42.0,-541.0,-1272.0,-280.0,32417.0,5552384.0,2451.0,2685.0,0.0
5909636000,0.010267686999779351,97392.9181929182,2172.0,2276.0,2279.0,1288.0,4912.0,-4860.0,-14804.0,829.0,-353.0,-8.0,-529.0,-1273.0,-277.0,32417.0,5552640.0,2343.0,2703.0,0.0
5909892000,0.010267481044650379,97394.8717948718,2264.0,2275.0,2278.0,1288.0,4924.0,-4864.0,-14784.0,838.0,-347.0,-23.0,-533.0,-1269.0,-275.0,32417.0,5552640.0,2287.0,2701.0,0.0
5910148000,0.010267481044650379,97394.8717948718,2282.0,2275.0,2275.0,1288.0,4944.0,-4872.0,-14768.0,823.0,-318.0,-12.0,-523.0,-1266.0,-276.0,32417.0,5552896.0,2269.0,2703.0,0.0
5910404000,0.010267686999779351,97392.9181929182,2277.0,2276.0,2277.0,1287.0,4952.0,-4868.0,-14836.0,823.0,-318.0,-12.0,-530.0,-1261.0,-282.0,32417.0,5552896.0,2261.0,2703.0,0.0
5910660000,0.010267686999779351,97392.9181929182,2257.0,2275.0,2279.0,1287.0,4980.0,-4860.0,-14808.0,834.0,-338.0,-18.0,-530.0,-1261.0,-282.0,32417.0,5552896.0,2250.0,2702.0,0.0
5910916000,0.010267686999779351,97392.9181929182,2245.0,2276.0,2277.0,1288.0,4992.0,-4836.0,-14768.0,828.0,-349.0,-35.0,-539.0,-1263.0,-280.0,32417.0,5552896.0,2247.0,2704.0,0.0
5911172000,0.010267686999779351,97392.9181929182,2232.0,2276.0,2278.0,1289.0,4916.0,-4892.0,-14752.0,835.0,-342.0,-28.0,-527.0,-1269.0,-277.0,32417.0,5552896.0,2246.0,2704.0,0.0
5911428000,0.010267686999779351,97392.9181929182,2224.0,2274.0,2278.0,1286.0,4940.0,-4860.0,-14796.0,834.0,-352.0,-25.0,-531.0,-1267.0,-276.0,32417.0,5552896.0,2245.0,2704.0,0.0
5911684000,0.010267686999779351,97392.9181929182,2212.0,2275.0,2279.0,1288.0,4944.0,-4860.0,-14764.0,827.0,-344.0,-35.0,-537.0,-1270.0,-278.0,32417.0,5553152.0,2242.0,2701.0,0.0
5911940000,0.010267686999779351,97392.9181929182,2221.0,2275.0,2278.0,1287.0,4900.0,-4880.0,-14736.0,832.0,-359.0,-43.0,-537.0,-1270.0,-278.0,32417.0,5553152.0,2249.0,2703.0,0.0
5912196000,0.010267686999779351,97392.9181929182,2232.0,2276.0,2277.0,1287.0,4968.0,-4900.0,-14752.0,824.0,-328.0,-36.0,-535.0,-1266.0,-280.0,32417.0,5553408.0,2251.0,2703.0,0.0
5912452000,0.010267686999779351,97392.9181929182,2226.0,2276.0,2278.0,1286.0,4912.0,-4924.0,-14800.0,822.0,-351.0,-45.0,-530.0,-1267.0,-279.0,32417.0,5553408.0,2248.0,2704.0,0.0
5912708000,0.010267686999779351,97392.9181929182,2215.0,2274.0,2277.0,1285.0,4940.0,-4908.0,-14848.0,838.0,-326.0,-30.0,-535.0,-1261.0,-281.0,32417.0,5553152.0,2244.0,2702.0,0.0
5912964000,0.010267686999779351,97392.9181929182,2221.0,2274.0,2280.0,1285.0,4916.0,-4936.0,-14812.0,838.0,-331.0,-32.0,-535.0,-1261.0,-281.0,32417.0,5553152.0,2250.0,2703.0,0.0
5913220000,0.010267481044650379,97394.8717948718,2221.0,2274.0,2279.0,1289.0,4936.0,-4888.0,-14808.0,841.0,-327.0,-20.0,-535.0,-1271.0,-283.0,32417.0,5553408.0,2246.0,2704.0,0.0
5913476000,0.010267686999779351,97392.9181929182,2179.0,2274.0,2278.0,1287.0,4912.0,-4904.0,-14796.0,853.0,-349.0,-8.0,-530.0,-1264.0,-273.0,32417.0,5553408.0,2452.0,2685.0,0.0
5913732000,0.010267686999779351,97392.9181929182,2166.0,2274.0,2277.0,1288.0,4928.0,-4860.0,-14772.0,834.0,-337.0,-7.0,-524.0,-1261.0,-274.0,32417.0,5553664.0,2344.0,2703.0,0.0
5913988000,0.010267686999779351,97392.9181929182,2260.0,2274.0,2278.0,1288.0,4872.0,-4868.0,-14788.0,850.0,-348.0,-38.0,-523.0,-1256.0,-276.0,32417.0,5553664.0,2287.0,2701.0,0.0
5914244000,0.010267686999779351,97392.9181929182,2279.0,2274.0,2280.0,1287.0,4924.0,-4896.0,-14768.0,825.0,-331.0,-36.0,-523.0,-1256.0,-276.0,32417.0,5553664.0,2269.0,2703.0,0.0
5914500000,0.010267481044650379,97394.8717948718,2266.0,2272.0,2278.0,1289.0,4896.0,-4888.0,-14756.0,831.0,-339.0,-19.0,-527.0,-1263.0,-277.0,32417.0,5553664.0,2256.0,2704.0,0.0
5914756000,0.010267686999779351,97392.9181929182,2244.0,2274.0,2276.0,1286.0,4928.0,-4900.0,-14776.0,818.0,-356.0,-25.0,-531.0,-1268.0,-272.0,32417.0,5553408.0,2248.0,2702.0,0.0
5915012000,0.010267686999779351,97392.9181929182,2244.0,2274.0,2278.0,1286.0,4920.0,-4872.0,-14776.0,824.0,-337.0,-40.0,-534.0,-1264.0,-279.0,32417.0,5553408.0,2251.0,2703.0,0.0
5915268000,0.010267686999779351,97392.9181929182,2230.0,2274.0,2280.0,1288.0,4908.0,-4920.0,-14784.0,828.0,-355.0,-23.0,-534.0,-1268.0,-278.0,32417.0,5553408.0,2246.0,2702.0,0.0
5915524000,0.010267686999779351,97392.9181929182,2236.0,2274.0,2277.0,1287.0,4912.0,-4900.0,-14848.0,837.0,-352.0,-34.0,-534.0,-1268.0,-278.0,32417.0,5553408.0,2251.0,2703.0,0.0
5915780000,0.010267686999779351,97392.9181929182,2228.0,2276.0,2278.0,1285.0,4964.0,-4868.0,-14808.0,844.0,-329.0,-39.0,-534.0,-1263.0,-281.0,32417.0,5553152.0,2246.0,2702.0,0.0
5916036000,0.010267686999779351,97392.9181929182,2222.0,2274.0,2279.0,1287.0,4908.0,-4856.0,-14840.0,870.0,-344.0,-31.0,-538.0,-1267.0,-278.0,32417.0,5553152.0,2245.0,2704.0,0.0
5916292000,0.010267686999779351,97392.9181929182,2227.0,2275.0,2277.0,1286.0,4952.0,-4824.0,-14788.0,864.0,-351.0,-55.0,-537.0,-1262.0,-286.0,32417.0,5553152.0,2250.0,2703.0,0.0
5916548000,0.010267686999779351,97392.9181929182,2228.0,2275.0,2277.0,1286.0,4972.0,-4820.0,-14792.0,874.0,-338.0,-51.0,-547.0,-1267.0,-282.0,32417.0,5553152.0,2252.0,2703.0,0.0
5916804000,0.010267686999779351,97392.9181929182,2223.0,2275.0,2276.0,1287.0,4940.0,-4852.0,-14808.0,859.0,-334.0,-42.0,-547.0,-1267.0,-282.0,32417.0,5553152.0,2246.0,2702.0,0.0
5917060000,0.010267481044650379,97394.8717948718,2219.0,2276.0,2277.0,1286.0,4932.0,-4872.0,-14804.0,858.0,-309.0,-51.0,-540.0,-1270.0,-281.0,32417.0,5553152.0,2243.0,2701.0,0.0
5917316000,0.010267686999779351,97392.9181929182,2224.0,2275.0,2279.0,1287.0,4920.0,-4856.0,-14780.0,844.0,-338.0,-30.0,-531.0,-1265.0,-275.0,32417.0,5553152.0,2249.0,2703.0,0.0
5917572000,0.010267686999779351,97392.9181929182,2214.0,2274.0,2279.0,1286.0,4916.0,-4904.0,-14804.0,847.0,-315.0,-31.0,-546.0,-1265.0,-276.0,32417.0,5553152.0,2244.0,2702.0,0.0
5917828000,0.010267686999779351,97392.9181929182,2212.0,2273.0,2280.0,1287.0,4884.0,-4896.0,-14808.0,834.0,-324.0,-11.0,-546.0,-1265.0,-276.0,32417.0,5552640.0,2243.0,2702.0,0.0
5918084000,0.010267686999779351,97392.9181929182,2208.0,2272.0,2280.0,1289.0,4908.0,-4916.0,-14788.0,834.0,-326.0,-21.0,-527.0,-1267.0,-282.0,32417.0,5552640.0,2242.0,2702.0,0.0
5918340000,0.010267686999779351,97392.9181929182,2206.0,2272.0,2279.0,1289.0,4928.0,-4884.0,-14748.0,872.0,-334.0,-4.0,-524.0,-1269.0,-280.0,32417.0,5552640.0,2244.0,2704.0,0.0
5918596000,0.010267686999779351,97392.9181929182,2204.0,2273.0,2280.0,1288.0,4896.0,-4872.0,-14752.0,882.0,-338.0,-6.0,-530.0,-1263.0,-277.0,32417.0,5552640.0,2244.0,2704.0,0.0
5918852000,0.010267686999779351,97392.9181929182,2207.0,2273.0,2278.0,1289.0,4904.0,-4880.0,-14720.0,883.0,-362.0,-34.0,-533.0,-1265.0,-276.0,32417.0,5552640.0,2243.0,2702.0,0.0
5919108000,0.010267686999779351,97392.9181929182,2202.0,2273.0,2276.0,1286.0,4948.0,-4828.0,-14808.0,872.0,-376.0,-31.0,-533.0,-1265.0,-276.0,32417.0,5552640.0,2241.0,2701.0,0.0
5919364000,0.010267686999779351,97392.9181929182,2211.0,2275.0,2276.0,1284.0,4920.0,-4840.0,-14820.0,844.0,-363.0,-32.0,-535.0,-1266.0,-275.0,32417.0,5552896.0,2248.0,2703.0,0.0
5919620000,0.010267686999779351,97392.9181929182,2226.0,2274.0,2275.0,1286.0,4928.0,-4784.0,-14808.0,844.0,-327.0,-56.0,-537.0,-1272.0,-281.0,32417.0,5552896.0,2251.0,2703.0,0.0
5919876000,0.010267686999779351,97392.9181929182,2234.0,2272.0,2275.0,1283.0,4928.0,-4812.0,-14848.0,810.0,-314.0,-33.0,-534.0,-1264.0,-279.0,32417.0,5552896.0,2253.0,2703.0,0.0
5920132000,0.010267686999779351,97392.9181929182,2230.0,2274.0,2276.0,1285.0,4960.0,-4836.0,-14848.0,811.0,-308.0,-23.0,-537.0,-1267.0,-279.0,32417.0,5552896.0,2247.0,2702.0,0.0
5920388000,0.010267481044650379,97394.8717948718,2236.0,2274.0,2277.0,1288.0,4924.0,-4884.0,-14828.0,819.0,-327.0,-21.0,-537.0,-1267.0,-279.0,32417.0,5552640.0,2251.0,2703.0,0.0
5920644000,0.010267481044650379,97394.8717948718,2234.0,2274.0,2279.0,1290.0,4960.0,-4876.0,-14800.0,840.0,-313.0,-20.0,-536.0,-1268.0,-278.0,32417.0,5552640.0,2247.0,2704.0,0.0
5920900000,0.010267686999779351,97392.9181929182,2238.0,2275.0,2279.0,1290.0,4924.0,-4908.0,-14764.0,868.0,-324.0,-28.0,-529.0,-1267.0,-279.0,32417.0,5553152.0,2251.0,2703.0,0.0
5921156000,0.010267686999779351,97392.9181929182,2228.0,2275.0,2277.0,1288.0,4920.0,-4896.0,-14744.0,896.0,-320.0,-24.0,-522.0,-1268.0,-274.0,32417.0,5553152.0,2246.0,2702.0,0.0
5921412000,0.010267481044650379,97394.8717948718,2215.0,2274.0,2277.0,1288.0,4916.0,-4876.0,-14816.0,910.0,-343.0,-40.0,-532.0,-1269.0,-274.0,32417.0,5553152.0,2244.0,2702.0,0.0
5921668000,0.010267686999779351,97392.9181929182,2223.0,2274.0,2276.0,1287.0,4900.0,-4836.0,-14808.0,886.0,-343.0,-49.0,-532.0,-1269.0,-274.0,32417.0,5553152.0,2249.0,2703.0,0.0
5921924000,0.010267686999779351,97392.9181929182,2228.0,2275.0,2277.0,1285.0,4908.0,-4820.0,-14832.0,870.0,-352.0,-63.0,-525.0,-1271.0,-273.0,32417.0,5552896.0,2252.0,2703.0,0.0
5922180000,0.010267686999779351,97392.9181929182,2236.0,2274.0,2277.0,1284.0,4900.0,-4856.0,-14852.0,828.0,-332.0,-66.0,-527.0,-1263.0,-275.0,32417.0,5552896.0,2253.0,2703.0,0.0
5922436000,0.010267686999779351,97392.9181929182,2240.0,2274.0,2279.0,1286.0,4920.0,-4904.0,-14780.0,857.0,-343.0,-41.0,-536.0,-1264.0,-272.0,32417.0,5553152.0,2253.0,2703.0,0.0
5922692000,0.010267686999779351,97392.9181929182,2241.0,2273.0,2279.0,1286.0,4944.0,-4900.0,-14816.0,868.0,-321.0,-28.0,-536.0,-1264.0,-272.0,32417.0,5553152.0,2253.0,2703.0,0.0
5922948000,0.010267686999779351,97392.9181929182,2245.0,2274.0,2279.0,1289.0,4948.0,-4924.0,-14804.0,877.0,-325.0,-23.0,-538.0,-1265.0,-276.0,32417.0,5553152.0,2254.0,2703.0,0.0
5923204000,0.010267686999779351,97392.9181929182,2238.0,2275.0,2277.0,1290.0,4912.0,-4872.0,-14712.0,904.0,-324.0,-37.0,-535.0,-1267.0,-274.0,32417.0,5553152.0,2249.0,2704.0,0.0
5923460000,0.010267686999779351,97392.9181929182,2236.0,2274.0,2278.0,1287.0,4896.0,-4868.0,-14744.0,879.0,-334.0,-20.0,-538.0,-1262.0,-280.0,32417.0,5552640.0,2252.0,2703.0,0.0
5923716000,0.010267686999779351,97392.9181929182,2240.0,2274.0,2277.0,1291.0,4924.0,-4848.0,-14784.0,886.0,-328.0,-14.0,-528.0,-1269.0,-281.0,32417.0,5552640.0,2253.0,2703.0,0.0
5923972000,0.010267686999779351,97392.9181929182,2233.0,2274.0,2276.0,1288.0,4888.0,-4836.0,-14816.0,882.0,-351.0,-33.0,-528.0,-1269.0,-281.0,32417.0,5552896.0,2247.0,2702.0,0.0
5924228000,0.010267686999779351,97392.9181929182,2221.0,2276.0,2274.0,1288.0,4912.0,-4864.0,-14760.0,840.0,-344.0,-48.0,-540.0,-1270.0,-280.0,32417.0,5552896.0,2244.0,2702.0,0.0
5924484000,0.010267686999779351,97392.9181929182,2225.0,2275.0,2277.0,1288.0,4928.0,-4844.0,-14832.0,834.0,-334.0,-32.0,-531.0,-1265.0,-278.0,32417.0,5552640.0,2249.0,2703.0,0.0
5924740000,0.010267481044650379,97394.8717948718,2229.0,2276.0,2278.0,1285.0,4912.0,-4820.0,-14832.0,830.0,-340.0,-9.0,-529.0,-1267.0,-274.0,32417.0,5552640.0,2252.0,2703.0,0.0
5924996000,0.010267686999779351,97392.9181929182,2222.0,2276.0,2278.0,1284.0,4920.0,-4828.0,-14900.0,883.0,-328.0,-37.0,-527.0,-1269.0,-279.0,32417.0,5553408.0,2246.0,2702.0,0.0
5925252000,0.010267686999779351,97392.9181929182,2213.0,2275.0,2275.0,1285.0,4908.0,-4820.0,-14884.0,865.0,-319.0,-11.0,-527.0,-1269.0,-279.0,32417.0,5553408.0,2244.0,2702.0,0.0
5925508000,0.010267686999779351,97392.9181929182,2210.0,2275.0,2278.0,1284.0,4912.0,-4768.0,-14856.0,843.0,-337.0,-34.0,-529.0,-1261.0,-275.0,32417.0,5553664.0,2244.0,2704.0,0.0
5925764000,0.010267686999779351,97392.9181929182,2206.0,2274.0,2276.0,1285.0,4920.0,-4784.0,-14800.0,847.0,-330.0,-10.0,-533.0,-1265.0,-276.0,32417.0,5553664.0,2244.0,2704.0,0.0
5926020000,0.010267686999779351,97392.9181929182,2217.0,2276.0,2276.0,1287.0,4920.0,-4800.0,-14840.0,855.0,-354.0,-17.0,-526.0,-1264.0,-282.0,32417.0,5553408.0,2249.0,2703.0,0.0
5926276000,0.010267686999779351,97392.9181929182,2215.0,2275.0,2276.0,1288.0,4928.0,-4796.0,-14792.0,853.0,-342.0,-20.0,-537.0,-1260.0,-275.0,32417.0,5553408.0,2245.0,2702.0,0.0
5926532000,0.010267686999779351,97392.9181929182,2224.0,2275.0,2276.0,1287.0,4948.0,-4824.0,-14792.0,858.0,-342.0,-6.0,-537.0,-1260.0,-275.0,32417.0,5553408.0,2250.0,2703.0,0.0
5926788000,0.010267686999779351,97392.9181929182,2228.0,2275.0,2275.0,1287.0,4888.0,-4820.0,-14744.0,851.0,-346.0,-30.0,-534.0,-1267.0,-279.0,32417.0,5553408.0,2252.0,2703.0,0.0
5927044000,0.010267686999779351,97392.9181929182,2236.0,2274.0,2274.0,1287.0,4884.0,-4844.0,-14772.0,851.0,-351.0,-38.0,-533.0,-1268.0,-276.0,32417.0,5552896.0,2253.0,2703.0,0.0
5927300000,0.010267686999779351,97392.9181929182,2232.0,2273.0,2275.0,1287.0,4848.0,-4832.0,-14824.0,851.0,-351.0,-38.0,-540.0,-1270.0,-275.0,32417.0,5552896.0,2247.0,2702.0,0.0
5927556000,0.010267686999779351,97392.9181929182,2217.0,2271.0,2275.0,1288.0,4864.0,-4808.0,-14840.0,833.0,-358.0,-31.0,-540.0,-1270.0,-275.0,32417.0,5552896.0,2244.0,2702.0,0.0
5927812000,0.010267686999779351,97392.9181929182,2212.0,2273.0,2278.0,1285.0,4844.0,-4796.0,-14820.0,846.0,-353.0,-25.0,-546.0,-1272.0,-272.0,32417.0,5552896.0,2244.0,2704.0,0.0
5928068000,0.010267481044650379,97394.8717948718,2221.0,2272.0,2276.0,1286.0,4872.0,-4860.0,-14792.0,817.0,-347.0,-27.0,-531.0,-1270.0,-277.0,32417.0,5552896.0,2249.0,2703.0,0.0
5928324000,0.010267686999779351,97392.9181929182,2219.0,2272.0,2278.0,1284.0,4624.0,-4876.0,-14824.0,813.0,-335.0,-22.0,-524.0,-1267.0,-285.0,32417.0,5552896.0,2246.0,2704.0,0.0
5928580000,0.010267686999779351,97392.9181929182,2224.0,2273.0,2278.0,1285.0,4876.0,-4876.0,-14848.0,803.0,-342.0,-19.0,-525.0,-1260.0,-277.0,32417.0,5553152.0,2250.0,2703.0,0.0
5928836000,0.010267686999779351,97392.9181929182,2220.0,2273.0,2279.0,1285.0,4864.0,-4884.0,-14880.0,820.0,-345.0,-43.0,-525.0,-1260.0,-277.0,32417.0,5553152.0,2246.0,2702.0,0.0
5929092000,0.010267686999779351,97392.9181929182,2218.0,2272.0,2280.0,1284.0,4860.0,-4892.0,-14816.0,846.0,-328.0,-12.0,-542.0,-1262.0,-277.0,32417.0,5553664.0,2243.0,2702.0,0.0
5929348000,0.010267686999779351,97392.9181929182,2223.0,2273.0,2278.0,1286.0,4904.0,-4928.0,-14796.0,868.0,-330.0,-27.0,-525.0,-1265.0,-274.0,32417.0,5553664.0,2249.0,2703.0,0.0
5929604000,0.010267686999779351,97392.9181929182,2228.0,2273.0,2276.0,1286.0,4892.0,-4848.0,-14864.0,881.0,-318.0,-11.0,-529.0,-1272.0,-276.0,32417.0,5552640.0,2252.0,2703.0,0.0
5929860000,0.010267686999779351,97392.9181929182,2235.0,2275.0,2277.0,1286.0,4904.0,-4828.0,-14836.0,888.0,-332.0,-9.0,-528.0,-1267.0,-274.0,32417.0,5552640.0,2253.0,2703.0,0.0
5930116000,0.010267686999779351,97392.9181929182,2231.0,2274.0,2275.0,1286.0,4868.0,-4796.0,-14792.0,885.0,-346.0,-16.0,-528.0,-1267.0,-274.0,32417.0,5552896.0,2247.0,2702.0,0.0
5930372000,0.010267686999779351,97392.9181929182,2219.0,2274.0,2273.0,1287.0,4864.0,-4824.0,-14788.0,890.0,-334.0,-16.0,-534.0,-1270.0,-280.0,32417.0,5552896.0,2244.0,2702.0,0.0
5930628000,0.010267686999779351,97392.9181929182,2225.0,2273.0,2274.0,1287.0,4872.0,-4776.0,-14824.0,851.0,-334.0,-21.0,-533.0,-1265.0,-279.0,32417.0,5553152.0,2250.0,2703.0,0.0
5930884000,0.010267686999779351,97392.9181929182,2221.0,2273.0,2275.0,1287.0,4876.0,-4808.0,-14812.0,832.0,-344.0,-28.0,-531.0,-1267.0,-281.0,32417.0,5553152.0,2246.0,2704.0,0.0
5931140000,0.010267686999779351,97392.9181929182,2211.0,2273.0,2276.0,1286.0,4896.0,-4792.0,-14832.0,843.0,-341.0,-14.0,-539.0,-1266.0,-282.0,32417.0,5552640.0,2244.0,2702.0,0.0
5931396000,0.010267686999779351,97392.9181929182,2221.0,2274.0,2276.0,1289.0,4868.0,-4804.0,-14836.0,818.0,-345.0,-32.0,-539.0,-1266.0,-282.0,32417.0,5552640.0,2249.0,2703.0,0.0
5931652000,0.010267686999779351,97392.9181929182,2228.0,2276.0,2277.0,1286.0,4908.0,-4840.0,-14824.0,801.0,-356.0,-19.0,-532.0,-1264.0,-279.0,32417.0,5553664.0,2252.0,2703.0,0.0
5931908000,0.010267686999779351,97392.9181929182,2235.0,2274.0,2278.0,1286.0,4928.0,-4876.0,-14824.0,816.0,-350.0,-36.0,-527.0,-1266.0,-279.0,32417.0,5553664.0,2253.0,2703.0,0.0
5932164000,0.010267686999779351,97392.9181929182,2232.0,2274.0,2278.0,1285.0,4904.0,-4864.0,-14812.0,820.0,-355.0,-9.0,-553.0,-1267.0,-278.0,32417.0,5553408.0,2247.0,2702.0,0.0
5932420000,0.010267686999779351,97392.9181929182,2236.0,2275.0,2278.0,1286.0,4896.0,-4824.0,-14816.0,843.0,-340.0,-14.0,-553.0,-1267.0,-278.0,32417.0,5553408.0,2251.0,2703.0,0.0
5932676000,0.010267686999779351,97392.9181929182,2236.0,2274.0,2279.0,1286.0,4884.0,-4860.0,-14816.0,843.0,-344.0,-14.0,-524.0,-1267.0,-277.0,32417.0,5553408.0,2252.0,2703.0,0.0
5932932000,0.010267686999779351,97392.9181929182,2241.0,2274.0,2279.0,1286.0,4888.0,-4824.0,-14840.0,834.0,-349.0,-21.0,-526.0,-1268.0,-284.0,32417.0,5553408.0,2253.0,2703.0,0.0
5933188000,0.010267686999779351,97392.9181929182,2235.0,2274.0,2277.0,1284.0,4876.0,-4844.0,-14808.0,844.0,-340.0,-35.0,-527.0,-1263.0,-276.0,32417.0,5552896.0,2247.0,2702.0,0.0
5933444000,0.010267686999779351,97392.9181929182,2238.0,2274.0,2277.0,1286.0,4900.0,-4816.0,-14816.0,845.0,-329.0,-26.0,-532.0,-1263.0,-282.0,32417.0,5552896.0,2251.0,2703.0,0.0
5933700000,0.010267686999779351,97392.9181929182,2227.0,2273.0,2278.0,1286.0,4888.0,-4864.0,-14840.0,836.0,-331.0,-24.0,-532.0,-1263.0,-282.0,32417.0,5553152.0,2246.0,2702.0,0.0
5933956000,0.010267686999779351,97392.9181929182,2223.0,2274.0,2277.0,1287.0,4920.0,-4864.0,-14772.0,851.0,-321.0,-21.0,-540.0,-1260.0,-277.0,32417.0,5553152.0,2245.0,2704.0,0.0
5934212000,0.010267481044650379,97394.8717948718,2227.0,2275.0,2276.0,1288.0,4904.0,-4872.0,-14844.0,832.0,-342.0,-39.0,-530.0,-1267.0,-276.0,32417.0,5553408.0,2250.0,2703.0,0.0
5934468000,0.010267686999779351,97392.9181929182,2230.0,2276.0,2276.0,1288.0,4932.0,-4876.0,-14788.0,843.0,-344.0,-22.0,-535.0,-1268.0,-274.0,32417.0,5553408.0,2252.0,2703.0,0.0
5934724000,0.010267686999779351,97392.9181929182,2236.0,2275.0,2275.0,1288.0,4888.0,-4804.0,-14788.0,828.0,-324.0,-12.0,-531.0,-1272.0,-280.0,32417.0,5553920.0,2253.0,2703.0,0.0
5934980000,0.010267686999779351,97392.9181929182,2241.0,2276.0,2277.0,1289.0,4928.0,-4816.0,-14784.0,838.0,-327.0,-14.0,-531.0,-1272.0,-280.0,32417.0,5553920.0,2254.0,2703.0,0.0
5935236000,0.010267686999779351,97392.9181929182,2236.0,2275.0,2276.0,1290.0,4920.0,-4804.0,-14792.0,849.0,-314.0,-20.0,-540.0,-1271.0,-289.0,32417.0,5553152.0,2247.0,2702.0,0.0
5935492000,0.010267686999779351,97392.9181929182,2221.0,2275.0,2275.0,1287.0,4884.0,-4828.0,-14824.0,832.0,-318.0,-36.0,-552.0,-1266.0,-283.0,32417.0,5553152.0,2244.0,2702.0,0.0
5935748000,0.010267686999779351,97392.9181929182,2216.0,2272.0,2277.0,1286.0,4892.0,-4800.0,-14804.0,831.0,-333.0,-50.0,-547.0,-1267.0,-280.0,32417.0,5553152.0,2243.0,2702.0,0.0
5936004000,0.010267686999779351,97392.9181929182,2222.0,2274.0,2276.0,1285.0,4896.0,-4836.0,-14800.0,847.0,-338.0,-18.0,-531.0,-1272.0,-281.0,32417.0,5553152.0,2249.0,2703.0,0.0
5936260000,0.010267686999779351,97392.9181929182,2227.0,2272.0,2278.0,1285.0,4896.0,-4860.0,-14860.0,844.0,-342.0,-32.0,-531.0,-1272.0,-281.0,32417.0,5553408.0,2252.0,2703.0,0.0
5936516000,0.010267686999779351,97392.9181929182,2224.0,2271.0,2279.0,1285.0,4888.0,-4848.0,-14836.0,840.0,-329.0,-35.0,-531.0,-1264.0,-278.0,32417.0,5553408.0,2248.0,2704.0,0.0
5936772000,0.010267686999779351,97392.9181929182,2233.0,2272.0,2279.0,1287.0,4876.0,-4872.0,-14816.0,834.0,-353.0,-7.0,-524.0,-1268.0,-277.0,32417.0,5553152.0,2251.0,2703.0,0.0
5937028000,0.010267686999779351,97392.9181929182,2238.0,2272.0,2278.0,1287.0,4880.0,-4820.0,-14780.0,852.0,-333.0,-32.0,-523.0,-1265.0,-276.0,32417.0,5553152.0,2253.0,2703.0,0.0
5937284000,0.010267686999779351,97392.9181929182,2227.0,2274.0,2277.0,1287.0,4900.0,-4836.0,-14848.0,848.0,-337.0,-27.0,-523.0,-1265.0,-276.0,32417.0,5552384.0,2246.0,2701.0,0.0
5937540000,0.010267481044650379,97394.8717948718,2230.0,2274.0,2277.0,1287.0,4896.0,-4852.0,-14836.0,847.0,-340.0,-30.0,-534.0,-1261.0,-283.0,32417.0,5552384.0,2250.0,2703.0,0.0
5937796000,0.010267481044650379,97394.8717948718,2223.0,2275.0,2278.0,1286.0,4912.0,-4840.0,-14804.0,823.0,-343.0,-22.0,-527.0,-1266.0,-274.0,32417.0,5553408.0,2245.0,2702.0,0.0
5938052000,0.010267686999779351,97392.9181929182,2227.0,2273.0,2276.0,1287.0,4920.0,-4824.0,-14788.0,839.0,-330.0,-30.0,-539.0,-1268.0,-275.0,32417.0,5553408.0,2250.0,2703.0,0.0
5938308000,0.010267686999779351,97392.9181929182,2230.0,2276.0,2277.0,1286.0,4932.0,-4848.0,-14832.0,850.0,-339.0,-28.0,-538.0,-1271.0,-278.0,32417.0,5553408.0,2252.0,2703.0,0.0
5938564000,0.010267686999779351,97392.9181929182,2208.0,2276.0,2275.0,1286.0,4928.0,-4816.0,-14828.0,856.0,-318.0,-27.0,-538.0,-1271.0,-278.0,32417.0,5553408.0,2240.0,2702.0,0.0
5938820000,0.010267686999779351,97392.9181929182,2207.0,2274.0,2276.0,1287.0,4920.0,-4824.0,-14824.0,847.0,-323.0,-28.0,-537.0,-1264.0,-278.0,32417.0,5553664.0,2242.0,2704.0,0.0
5939076000,0.010267686999779351,97392.9181929182,2209.0,2273.0,2277.0,1289.0,4896.0,-4808.0,-14772.0,820.0,-344.0,-47.0,-537.0,-1267.0,-283.0,32417.0,5553664.0,2243.0,2704.0,0.0
5939332000,0.010267686999779351,97392.9181929182,2219.0,2274.0,2276.0,1288.0,4920.0,-4852.0,-14764.0,834.0,-338.0,-45.0,-538.0,-1266.0,-275.0,32417.0,5553408.0,2249.0,2703.0,0.0
5939588000,0.010267686999779351,97392.9181929182,2225.0,2275.0,2278.0,1286.0,4928.0,-4864.0,-14816.0,813.0,-337.0,-30.0,-533.0,-1264.0,-280.0,32417.0,5553408.0,2252.0,2703.0,0.0
5939844000,0.010267686999779351,97392.9181929182,2234.0,2274.0,2279.0,1291.0,4888.0,-4900.0,-14856.0,835.0,-333.0,-20.0,-533.0,-1264.0,-280.0,32417.0,5553152.0,2253.0,2703.0,0.0
5940100000,0.010267686999779351,97392.9181929182,2233.0,2275.0,2276.0,1285.0,4920.0,-4876.0,-14784.0,835.0,-320.0,-23.0,-533.0,-1266.0,-282.0,32417.0,5553152.0,2249.0,2704.0,0.0
5940356000,0.010267686999779351,97392.9181929182,2224.0,2275.0,2277.0,1285.0,4916.0,-4848.0,-14800.0,850.0,-352.0,-12.0,-526.0,-1263.0,-274.0,32417.0,5553664.0,2245.0,2702.0,0.0
5940612000,0.010267686999779351,97392.9181929182,2228.0,2274.0,2277.0,1287.0,4908.0,-4844.0,-14760.0,855.0,-334.0,-19.0,-525.0,-1264.0,-276.0,32417.0,5553664.0,2250.0,2703.0,0.0
5940868000,0.010267686999779351,97392.9181929182,2229.0,2273.0,2278.0,1288.0,4888.0,-4864.0,-14832.0,858.0,-324.0,-21.0,-531.0,-1266.0,-278.0,32417.0,5553664.0,2252.0,2703.0,0.0
5941124000,0.010267481044650379,97394.8717948718,2237.0,2271.0,2277.0,1285.0,4872.0,-4888.0,-14840.0,832.0,-318.0,-24.0,-531.0,-1266.0,-278.0,32417.0,5553664.0,2253.0,2703.0,0.0
5941380000,0.010267686999779351,97392.9181929182,2242.0,2272.0,2277.0,1288.0,4828.0,-4816.0,-14752.0,823.0,-302.0,-2.0,-530.0,-1268.0,-278.0,32417.0,5553920.0,2253.0,2703.0,0.0
5941636000,0.010267686999779351,97392.9181929182,2244.0,2273.0,2276.0,1288.0,4896.0,-4876.0,-14732.0,800.0,-351.0,-34.0,-534.0,-1263.0,-278.0,32417.0,5553920.0,2254.0,2703.0,0.0
5941892000,0.010267686999779351,97392.9181929182,2245.0,2275.0,2274.0,1290.0,4948.0,-4848.0,-14800.0,780.0,-343.0,-42.0,-535.0,-1265.0,-283.0,32426.0,5553920.0,2254.0,2703.0,0.0
5942148000,0.010267686999779351,97392.9181929182,2236.0,2277.0,2277.0,1287.0,4984.0,-4876.0,-14788.0,793.0,-385.0,-28.0,-535.0,-1265.0,-283.0,32426.0,5553920.0,2247.0,2702.0,0.0
5942404000,0.010267481044650379,97394.8717948718,2240.0,2277.0,2278.0,1285.0,4960.0,-4892.0,-14788.0,827.0,-358.0,-59.0,-539.0,-1258.0,-277.0,32426.0,5553664.0,2251.0,2703.0,0.0
5942660000,0.010267686999779351,97392.9181929182,2238.0,2277.0,2276.0,1284.0,5000.0,-4840.0,-14836.0,877.0,-326.0,-48.0,-538.0,-1266.0,-281.0,32426.0,5553664.0,2252.0,2703.0,0.0
5942916000,0.010267481044650379,97394.8717948718,2241.0,2274.0,2277.0,1285.0,4948.0,-4856.0,-14824.0,866.0,-336.0,-35.0,-533.0,-1265.0,-276.0,32426.0,5553152.0,2253.0,2703.0,0.0
5943172000,0.010267686999779351,97392.9181929182,2244.0,2274.0,2276.0,1284.0,4932.0,-4812.0,-14844.0,823.0,-309.0,-8.0,-527.0,-1266.0,-280.0,32426.0,5553152.0,2254.0,2703.0,0.0
5943428000,0.010267686999779351,97392.9181929182,2244.0,2275.0,2277.0,1286.0,4936.0,-4868.0,-14808.0,782.0,-303.0,-13.0,-527.0,-1266.0,-280.0,32426.0,5553152.0,2254.0,2703.0,0.0
5943684000,0.010267686999779351,97392.9181929182,2247.0,2273.0,2279.0,1287.0,4904.0,-4856.0,-14792.0,815.0,-307.0,-4.0,-543.0,-1266.0,-282.0,32426.0,5553152.0,2254.0,2703.0,0.0
5943940000,0.010267686999779351,97392.9181929182,2247.0,2273.0,2279.0,1288.0,4888.0,-4880.0,-14740.0,842.0,-321.0,-17.0,-528.0,-1264.0,-283.0,32426.0,5553408.0,2254.0,2703.0,0.0
5944196000,0.010267686999779351,97392.9181929182,2200.0,2273.0,2279.0,1285.0,4912.0,-4912.0,-14792.0,886.0,-326.0,-26.0,-529.0,-1265.0,-284.0,32426.0,5553408.0,2456.0,2686.0,0.0
5944452000,0.010267686999779351,97392.9181929182,2174.0,2273.0,2278.0,1286.0,4884.0,-4880.0,-14800.0,886.0,-326.0,-26.0,-525.0,-1265.0,-281.0,32426.0,5552640.0,2339.0,2702.0,0.0
5944708000,0.010267481044650379,97394.8717948718,2272.0,2273.0,2277.0,1286.0,4896.0,-4820.0,-14820.0,910.0,-334.0,-55.0,-525.0,-1265.0,-281.0,32426.0,5552640.0,2293.0,2703.0,0.0
5944964000,0.010267686999779351,97392.9181929182,2288.0,2271.0,2276.0,1285.0,4916.0,-4860.0,-14860.0,890.0,-359.0,-42.0,-531.0,-1267.0,-281.0,32426.0,5552896.0,2272.0,2703.0,0.0
5945220000,0.010267481044650379,97394.8717948718,2275.0,2271.0,2276.0,1284.0,4920.0,-4832.0,-14824.0,887.0,-350.0,-59.0,-536.0,-1266.0,-280.0,32426.0,5552896.0,2257.0,2704.0,0.0
5945476000,0.010267686999779351,97392.9181929182,2254.0,2273.0,2274.0,1285.0,4904.0,-4820.0,-14840.0,879.0,-327.0,-50.0,-537.0,-1266.0,-282.0,32426.0,5553664.0,2249.0,2702.0,0.0
5945732000,0.010267686999779351,97392.9181929182,2235.0,2273.0,2275.0,1287.0,4900.0,-4816.0,-14796.0,909.0,-346.0,-54.0,-532.0,-1265.0,-280.0,32426.0,5553664.0,2245.0,2702.0,0.0
5945988000,0.010267686999779351,97392.9181929182,2233.0,2274.0,2273.0,1287.0,4916.0,-4804.0,-14840.0,889.0,-324.0,-28.0,-532.0,-1265.0,-280.0,32426.0,5553408.0,2249.0,2703.0,0.0
5946244000,0.010267686999779351,97392.9181929182,2232.0,2273.0,2274.0,1288.0,4908.0,-4808.0,-14768.0,891.0,-325.0,-6.0,-535.0,-1268.0,-282.0,32426.0,5553408.0,2247.0,2704.0,0.0
5946500000,0.010267686999779351,97392.9181929182,2238.0,2274.0,2276.0,1290.0,4936.0,-4832.0,-14756.0,889.0,-329.0,-12.0,-536.0,-1262.0,-285.0,32426.0,5553152.0,2251.0,2703.0,0.0
5946756000,0.010267686999779351,97392.9181929182,2186.0,2275.0,2276.0,1290.0,4952.0,-4812.0,-14724.0,866.0,-332.0,-12.0,-531.0,-1268.0,-280.0,32426.0,5553152.0,2223.0,2691.0,0.0
5947012000,0.010267686999779351,97392.9181929182,2185.0,2274.0,2276.0,1292.0,4936.0,-4892.0,-14788.0,861.0,-330.0,-12.0,-528.0,-1264.0,-275.0,32426.0,5553664.0,2240.0,2703.0,0.0
5947268000,0.010267686999779351,97392.9181929182,2202.0,2274.0,2275.0,1287.0,4868.0,-4856.0,-14764.0,859.0,-352.0,-31.0,-528.0,-1264.0,-275.0,32426.0,5553664.0,2248.0,2703.0,0.0
5947524000,0.010267686999779351,97392.9181929182,2203.0,2273.0,2276.0,1284.0,4924.0,-4836.0,-14808.0,826.0,-341.0,-33.0,-527.0,-1273.0,-280.0,32426.0,5553408.0,2244.0,2702.0,0.0
5947780000,0.010267686999779351,97392.9181929182,2216.0,2273.0,2277.0,1285.0,4928.0,-4852.0,-14840.0,815.0,-356.0,-41.0,-520.0,-1271.0,-274.0,32426.0,5553408.0,2250.0,2703.0,0.0
5948036000,0.010267686999779351,97392.9181929182,2224.0,2274.0,2277.0,1284.0,4932.0,-4844.0,-14888.0,798.0,-335.0,-44.0,-524.0,-1264.0,-279.0,32426.0,5553664.0,2252.0,2703.0,0.0
5948292000,0.010267686999779351,97392.9181929182,2232.0,2275.0,2278.0,1284.0,4932.0,-4848.0,-14924.0,818.0,-343.0,-37.0,-524.0,-1264.0,-279.0,32426.0,5553664.0,2253.0,2703.0,0.0
5948548000,0.010267686999779351,97392.9181929182,2240.0,2276.0,2277.0,1284.0,4928.0,-4836.0,-14848.0,849.0,-336.0,-20.0,-530.0,-1262.0,-281.0,32426.0,5552896.0,2253.0,2703.0,0.0
5948804000,0.010267686999779351,97392.9181929182,2243.0,2276.0,2277.0,1286.0,4952.0,-4840.0,-14812.0,842.0,-320.0,-16.0,-534.0,-1272.0,-281.0,32426.0,5552896.0,2254.0,2703.0,0.0
5949060000,0.010267686999779351,97392.9181929182,2245.0,2276.0,2278.0,1287.0,4948.0,-4836.0,-14816.0,834.0,-310.0,-17.0,-535.0,-1262.0,-281.0,32426.0,5553152.0,2254.0,2703.0,0.0
5949316000,0.010267686999779351,97392.9181929182,2190.0,2277.0,2276.0,1288.0,4952.0,-4824.0,-14760.0,849.0,-307.0,-16.0,-530.0,-1262.0,-276.0,32426.0,5553152.0,2450.0,2684.0,0.0
5949572000,0.010267686999779351,97392.9181929182,2159.0,2277.0,2276.0,1287.0,4976.0,-4856.0,-14760.0,865.0,-313.0,-4.0,-530.0,-1262.0,-276.0,32426.0,5553408.0,2335.0,2702.0,0.0
5949828000,0.010267686999779351,97392.9181929182,2261.0,2275.0,2274.0,1287.0,4972.0,-4836.0,-14768.0,849.0,-323.0,-12.0,-536.0,-1266.0,-287.0,32426.0,5553408.0,2292.0,2703.0,0.0
5950084000,0.010267686999779351,97392.9181929182,2286.0,2274.0,2276.0,1288.0,4912.0,-4808.0,-14708.0,878.0,-347.0,-15.0,-532.0,-1266.0,-285.0,32426.0,5553664.0,2271.0,2703.0,0.0
5950340000,0.010267686999779351,97392.9181929182,2274.0,2273.0,2275.0,1288.0,4944.0,-4852.0,-14764.0,878.0,-365.0,-18.0,-556.0,-1267.0,-283.0,32426.0,5553664.0,2257.0,2704.0,0.0
5950596000,0.010267686999779351,97392.9181929182,2252.0,2273.0,2276.0,1289.0,4920.0,-4816.0,-14788.0,860.0,-364.0,-25.0,-527.0,-1260.0,-281.0,32426.0,5553408.0,2249.0,2702.0,0.0
5950852000,0.010267686999779351,97392.9181929182,2235.0,2272.0,2276.0,1284.0,4876.0,-4820.0,-14788.0,833.0,-372.0,-35.0,-527.0,-1260.0,-281.0,32426.0,5553408.0,2245.0,2702.0,0.0
5951108000,0.010267686999779351,97392.9181929182,2227.0,2272.0,2276.0,1288.0,4896.0,-4848.0,-14820.0,804.0,-366.0,-29.0,-530.0,-1272.0,-284.0,32426.0,5553152.0,2245.0,2704.0,0.0
5951364000,0.010267686999779351,97392.9181929182,2230.0,2272.0,2277.0,1285.0,4880.0,-4824.0,-14788.0,798.0,-369.0,-38.0,-530.0,-1262.0,-281.0,32426.0,5553152.0,2252.0,2705.0,0.0
5951620000,0.010267686999779351,97392.9181929182,2190.0,2274.0,2277.0,1285.0,4892.0,-4888.0,-14816.0,793.0,-345.0,-32.0,-529.0,-1270.0,-276.0,32426.0,5552896.0,2454.0,2685.0,0.0
5951876000,0.010267686999779351,97392.9181929182,2161.0,2274.0,2279.0,1284.0,4864.0,-4912.0,-14892.0,815.0,-350.0,-11.0,-528.0,-1270.0,-278.0,32426.0,5552896.0,2338.0,2702.0,0.0
5952132000,0.010267686999779351,97392.9181929182,2267.0,2274.0,2281.0,1285.0,4892.0,-4944.0,-14824.0,792.0,-344.0,-32.0,-528.0,-1270.0,-278.0,32426.0,5553152.0,2293.0,2703.0,0.0
5952388000,0.010267686999779351,97392.9181929182,2284.0,2273.0,2279.0,1288.0,4900.0,-4920.0,-14776.0,840.0,-327.0,-23.0,-536.0,-1261.0,-277.0,32426.0,5553152.0,2267.0,2704.0,0.0
5952644000,0.010267686999779351,97392.9181929182,2266.0,2275.0,2279.0,1285.0,4892.0,-4888.0,-14776.0,882.0,-327.0,-11.0,-537.0,-1264.0,-279.0,32426.0,5553152.0,2254.0,2702.0,0.0
5952900000,0.010267686999779351,97392.9181929182,2257.0,2275.0,2276.0,1287.0,4904.0,-4840.0,-14796.0,902.0,-328.0,-19.0,-533.0,-1265.0,-280.0,32426.0,5553152.0,2253.0,2703.0,0.0
5953156000,0.010267686999779351,97392.9181929182,2242.0,2272.0,2273.0,1285.0,4928.0,-4808.0,-14852.0,898.0,-329.0,-10.0,-533.0,-1265.0,-280.0,32426.0,5553408.0,2247.0,2702.0,0.0
5953412000,0.010267686999779351,97392.9181929182,2232.0,2273.0,2271.0,1287.0,4916.0,-4748.0,-14828.0,889.0,-310.0,-18.0,-530.0,-1265.0,-285.0,32426.0,5553408.0,2246.0,2704.0,0.0
5953668000,0.010267686999779351,97392.9181929182,2218.0,2273.0,2269.0,1289.0,4868.0,-4736.0,-14748.0,852.0,-335.0,-22.0,-536.0,-1264.0,-285.0,32426.0,5553408.0,2244.0,2702.0,0.0
5953924000,0.010267686999779351,97392.9181929182,2224.0,2274.0,2272.0,1287.0,4896.0,-4736.0,-14760.0,792.0,-355.0,-39.0,-530.0,-1269.0,-279.0,32426.0,5553408.0,2249.0,2703.0,0.0
5954180000,0.010267686999779351,97392.9181929182,2228.0,2274.0,2272.0,1288.0,4932.0,-4776.0,-14840.0,811.0,-345.0,-9.0,-529.0,-1266.0,-277.0,32426.0,5553664.0,2252.0,2703.0,0.0
5954436000,0.010267481044650379,97394.8717948718,2222.0,2274.0,2275.0,1286.0,4904.0,-4784.0,-14864.0,796.0,-350.0,-14.0,-529.0,-1266.0,-277.0,32426.0,5553664.0,2248.0,2704.0,0.0
5954692000,0.010267686999779351,97392.9181929182,2234.0,2276.0,2275.0,1283.0,4900.0,-4804.0,-14852.0,787.0,-358.0,-34.0,-521.0,-1268.0,-277.0,32426.0,5553152.0,2251.0,2703.0,0.0
5954948000,0.010267686999779351,97392.9181929182,2231.0,2276.0,2277.0,1285.0,4908.0,-4804.0,-14824.0,788.0,-360.0,-26.0,-527.0,-1264.0,-281.0,32426.0,5553152.0,2247.0,2704.0,0.0
5955204000,0.010267686999779351,97392.9181929182,2237.0,2276.0,2279.0,1284.0,4896.0,-4860.0,-14812.0,791.0,-343.0,-28.0,-528.0,-1263.0,-282.0,32426.0,5553920.0,2251.0,2703.0,0.0
5955460000,0.010267686999779351,97392.9181929182,2239.0,2275.0,2278.0,1283.0,4904.0,-4824.0,-14868.0,812.0,-328.0,-13.0,-528.0,-1266.0,-283.0,32426.0,5553920.0,2253.0,2703.0,0.0
5955716000,0.010267686999779351,97392.9181929182,2201.0,2273.0,2278.0,1285.0,4900.0,-4800.0,-14824.0,806.0,-332.0,-11.0,-528.0,-1266.0,-283.0,32426.0,5553152.0,2455.0,2685.0,0.0
5955972000,0.010267686999779351,97392.9181929182,2172.0,2275.0,2278.0,1287.0,4852.0,-4868.0,-14836.0,802.0,-337.0,-10.0,-541.0,-1264.0,-278.0,32426.0,5553152.0,2340.0,2704.0,0.0
5956228000,0.010267686999779351,97392.9181929182,2272.0,2275.0,2277.0,1286.0,4872.0,-4852.0,-14756.0,831.0,-330.0,-20.0,-532.0,-1269.0,-277.0,32426.0,5553152.0,2294.0,2703.0,0.0
5956484000,0.010267481044650379,97394.8717948718,2287.0,2273.0,2277.0,1288.0,4892.0,-4864.0,-14800.0,807.0,-346.0,-31.0,-539.0,-1266.0,-277.0,32426.0,5553152.0,2272.0,2703.0,0.0
5956740000,0.010267481044650379,97394.8717948718,2272.0,2273.0,2278.0,1287.0,4900.0,-4900.0,-14816.0,816.0,-349.0,-28.0,-536.0,-1266.0,-277.0,32426.0,5553408.0,2255.0,2701.0,0.0
5956996000,0.010267686999779351,97392.9181929182,2261.0,2274.0,2278.0,1285.0,4900.0,-4848.0,-14832.0,821.0,-332.0,-35.0,-536.0,-1266.0,-277.0,32426.0,5553408.0,2254.0,2703.0,0.0
5957252000,0.010267686999779351,97392.9181929182,2256.0,2272.0,2278.0,1286.0,4884.0,-4848.0,-14816.0,827.0,-330.0,-13.0,-535.0,-1267.0,-281.0,32426.0,5553664.0,2254.0,2703.0,0.0
5957508000,0.010267686999779351,97392.9181929182,2244.0,2274.0,2277.0,1286.0,4888.0,-4872.0,-14824.0,817.0,-324.0,-26.0,-532.0,-1259.0,-275.0,32426.0,5553664.0,2249.0,2704.0,0.0
5957764000,0.010267686999779351,97392.9181929182,2230.0,2275.0,2276.0,1285.0,4912.0,-4836.0,-14828.0,816.0,-314.0,-31.0,-539.0,-1261.0,-279.0,32426.0,5552896.0,2245.0,2702.0,0.0
5958020000,0.010267686999779351,97392.9181929182,2221.0,2276.0,2277.0,1285.0,4908.0,-4804.0,-14876.0,805.0,-335.0,-21.0,-539.0,-1261.0,-279.0,32426.0,5552896.0,2243.0,2702.0,0.0
5958276000,0.010267686999779351,97392.9181929182,2213.0,2275.0,2277.0,1287.0,4864.0,-4812.0,-14820.0,818.0,-340.0,-23.0,-528.0,-1266.0,-284.0,32426.0,5553664.0,2242.0,2702.0,0.0
5958532000,0.010267686999779351,97392.9181929182,2221.0,2274.0,2277.0,1287.0,4916.0,-4840.0,-14780.0,813.0,-313.0,-11.0,-529.0,-1260.0,-284.0,32426.0,5553664.0,2249.0,2703.0,0.0
5958788000,0.010267686999779351,97392.9181929182,2217.0,2274.0,2277.0,1287.0,4876.0,-4852.0,-14772.0,828.0,-321.0,-5.0,-525.0,-1265.0,-280.0,32426.0,5552640.0,2245.0,2702.0,0.0
5959044000,0.010267686999779351,97392.9181929182,2215.0,2275.0,2276.0,1287.0,4904.0,-4820.0,-14840.0,811.0,-352.0,-7.0,-542.0,-1262.0,-280.0,32426.0,5552640.0,2243.0,2702.0,0.0
5959300000,0.010267481044650379,97394.8717948718,2221.0,2273.0,2278.0,1287.0,4880.0,-4828.0,-14824.0,820.0,-333.0,-22.0,-542.0,-1262.0,-280.0,32426.0,5553152.0,2249.0,2703.0,0.0
5959556000,0.010267686999779351,97392.9181929182,2225.0,2274.0,2277.0,1286.0,4852.0,-4828.0,-14812.0,798.0,-346.0,-23.0,-529.0,-1262.0,-281.0,32426.0,5553152.0,2247.0,2704.0,0.0
5959812000,0.010267686999779351,97392.9181929182,2215.0,2273.0,2277.0,1286.0,4880.0,-4832.0,-14800.0,780.0,-342.0,-23.0,-532.0,-1273.0,-282.0,32426.0,5553152.0,2244.0,2702.0,0.0
5960068000,0.010267686999779351,97392.9181929182,2223.0,2273.0,2277.0,1285.0,4888.0,-4808.0,-14840.0,775.0,-351.0,-8.0,-533.0,-1269.0,-278.0,32426.0,5553152.0,2250.0,2703.0,0.0
5960324000,0.010267686999779351,97392.9181929182,2218.0,2274.0,2279.0,1284.0,4892.0,-4844.0,-14840.0,766.0,-350.0,-12.0,-536.0,-1263.0,-279.0,32426.0,5553664.0,2245.0,2702.0,0.0
5960580000,0.010267686999779351,97392.9181929182,2216.0,2274.0,2275.0,1286.0,4908.0,-4888.0,-14800.0,780.0,-350.0,-31.0,-536.0,-1263.0,-279.0,32426.0,5553664.0,2245.0,2704.0,0.0
5960836000,0.010267686999779351,97392.9181929182,2210.0,2273.0,2276.0,1287.0,4924.0,-4860.0,-14796.0,794.0,-326.0,-12.0,-535.0,-1265.0,-278.0,32426.0,5553408.0,2242.0,2701.0,0.0
5961092000,0.010267481044650379,97394.8717948718,2214.0,2272.0,2278.0,1287.0,4888.0,-4824.0,-14812.0,823.0,-313.0,-21.0,-530.0,-1269.0,-277.0,32426.0,5553408.0,2248.0,2703.0,0.0
5961348000,0.010267686999779351,97392.9181929182,2227.0,2276.0,2276.0,1288.0,4868.0,-4820.0,-14828.0,823.0,-313.0,-21.0,-531.0,-1263.0,-282.0,32426.0,5553408.0,2251.0,2703.0,0.0
5961604000,0.010267686999779351,97392.9181929182,2229.0,2274.0,2276.0,1287.0,4908.0,-4836.0,-14800.0,791.0,-336.0,-5.0,-527.0,-1271.0,-279.0,32426.0,5553408.0,2252.0,2703.0,0.0
5961860000,0.010267686999779351,97392.9181929182,2229.0,2275.0,2276.0,1287.0,4832.0,-4828.0,-14768.0,779.0,-327.0,-19.0,-527.0,-1271.0,-279.0,32426.0,5553664.0,2247.0,2702.0,0.0
5962116000,0.010267686999779351,97392.9181929182,2236.0,2276.0,2275.0,1287.0,4928.0,-4856.0,-14824.0,772.0,-330.0,-17.0,-528.0,-1268.0,-277.0,32426.0,5553664.0,2251.0,2703.0,0.0
5962372000,0.010267686999779351,97392.9181929182,2227.0,2275.0,2276.0,1285.0,4896.0,-4828.0,-14828.0,780.0,-323.0,-15.0,-530.0,-1263.0,-283.0,32426.0,5553152.0,2246.0,2702.0,0.0
5962628000,0.010267686999779351,97392.9181929182,2229.0,2276.0,2275.0,1286.0,4892.0,-4808.0,-14800.0,768.0,-348.0,-27.0,-523.0,-1270.0,-282.0,32426.0,5553152.0,2250.0,2703.0,0.0
5962884000,0.010267686999779351,97392.9181929182,2216.0,2275.0,2276.0,1287.0,4908.0,-4824.0,-14832.0,784.0,-340.0,-24.0,-523.0,-1270.0,-282.0,32426.0,5553664.0,2244.0,2701.0,0.0
5963140000,0.010267686999779351,97392.9181929182,2225.0,2274.0,2277.0,1287.0,4920.0,-4860.0,-14788.0,750.0,-323.0,-4.0,-527.0,-1270.0,-280.0,32426.0,5553664.0,2250.0,2703.0,0.0
5963396000,0.010267686999779351,97392.9181929182,2229.0,2276.0,2277.0,1287.0,4936.0,-4872.0,-14828.0,768.0,-346.0,-25.0,-531.0,-1259.0,-282.0,32426.0,5553408.0,2252.0,2703.0,0.0
5963652000,0.010267686999779351,97392.9181929182,2224.0,2274.0,2280.0,1287.0,4880.0,-4892.0,-14792.0,756.0,-340.0,-20.0,-538.0,-1263.0,-281.0,32426.0,5553408.0,2248.0,2704.0,0.0
5963908000,0.010267686999779351,97392.9181929182,2199.0,2274.0,2279.0,1287.0,4900.0,-4888.0,-14796.0,781.0,-349.0,-37.0,-534.0,-1261.0,-280.0,32426.0,5553664.0,2236.0,2700.0,0.0
5964164000,0.010267686999779351,97392.9181929182,2206.0,2273.0,2279.0,1286.0,4832.0,-4896.0,-14852.0,780.0,-339.0,-6.0,-534.0,-1261.0,-280.0,32426.0,5553664.0,2246.0,2703.0,0.0
5964420000,0.010267686999779351,97392.9181929182,2220.0,2273.0,2278.0,1287.0,4888.0,-4856.0,-14784.0,777.0,-347.0,-7.0,-538.0,-1266.0,-279.0,32426.0,5553152.0,2250.0,2703.0,0.0
5964676000,0.010267686999779351,97392.9181929182,2223.0,2274.0,2280.0,1287.0,4880.0,-4876.0,-14804.0,765.0,-326.0,-21.0,-530.0,-1268.0,-274.0,32426.0,5553152.0,2247.0,2704.0,0.0
5964932000,0.010267686999779351,97392.9181929182,2218.0,2274.0,2279.0,1287.0,4884.0,-4864.0,-14812.0,767.0,-318.0,-11.0,-533.0,-1263.0,-275.0,32426.0,5553152.0,2243.0,2701.0,0.0
5965188000,0.010267481044650379,97394.8717948718,2223.0,2274.0,2278.0,1285.0,4844.0,-4896.0,-14808.0,754.0,-325.0,-30.0,-549.0,-1269.0,-278.0,32426.0,5553152.0,2249.0,2703.0,0.0
5965444000,0.010267686999779351,97392.9181929182,2227.0,2274.0,2280.0,1286.0,4848.0,-4892.0,-14844.0,744.0,-324.0,-39.0,-549.0,-1269.0,-278.0,32426.0,5553152.0,2252.0,2703.0,0.0
5965700000,0.010267686999779351,97392.9181929182,2224.0,2272.0,2280.0,1286.0,4888.0,-4924.0,-14824.0,728.0,-329.0,-22.0,-530.0,-1263.0,-278.0,32426.0,5553152.0,2248.0,2704.0,0.0
5965956000,0.010267481044650379,97394.8717948718,2214.0,2272.0,2280.0,1288.0,4852.0,-4888.0,-14796.0,737.0,-333.0,-7.0,-530.0,-1268.0,-271.0,32426.0,5553152.0,2244.0,2701.0,0.0
5966212000,0.010267686999779351,97392.9181929182,2222.0,2273.0,2279.0,1289.0,4884.0,-4876.0,-14732.0,733.0,-329.0,-22.0,-525.0,-1264.0,-277.0,32426.0,5553152.0,2249.0,2703.0,0.0
5966468000,0.010267686999779351,97392.9181929182,2226.0,2275.0,2281.0,1290.0,4920.0,-4920.0,-14792.0,756.0,-335.0,8.0,-528.0,-1268.0,-277.0,32426.0,5553408.0,2252.0,2703.0,0.0
5966724000,0.010267686999779351,97392.9181929182,2223.0,2276.0,2281.0,1291.0,4912.0,-4896.0,-14776.0,786.0,-355.0,-13.0,-528.0,-1268.0,-277.0,32426.0,5553408.0,2248.0,2704.0,0.0
5966980000,0.010267686999779351,97392.9181929182,2219.0,2276.0,2280.0,1287.0,4940.0,-4920.0,-14792.0,787.0,-351.0,-22.0,-532.0,-1265.0,-278.0,32426.0,5553408.0,2243.0,2701.0,0.0
5967236000,0.010267686999779351,97392.9181929182,2224.0,2276.0,2279.0,1289.0,4936.0,-4884.0,-14776.0,791.0,-376.0,-25.0,-538.0,-1265.0,-275.0,32426.0,5553408.0,2249.0,2703.0,0.0
5967492000,0.010267686999779351,97392.9181929182,2228.0,2275.0,2279.0,1284.0,4924.0,-4892.0,-14848.0,763.0,-346.0,-27.0,-532.0,-1269.0,-280.0,32426.0,5553152.0,2252.0,2703.0,0.0
5967748000,0.010267686999779351,97392.9181929182,2234.0,2276.0,2280.0,1286.0,4948.0,-4920.0,-14824.0,744.0,-310.0,-31.0,-532.0,-1269.0,-280.0,32426.0,5553152.0,2253.0,2703.0,0.0
5968004000,0.010267686999779351,97392.9181929182,2217.0,2275.0,2282.0,1287.0,4940.0,-4912.0,-14860.0,738.0,-296.0,-31.0,-536.0,-1268.0,-278.0,32426.0,5553408.0,2239.0,2700.0,0.0
5968260000,0.010267686999779351,97392.9181929182,2210.0,2274.0,2283.0,1287.0,4876.0,-4952.0,-14780.0,755.0,-297.0,-10.0,-531.0,-1267.0,-281.0,32426.0,5553408.0,2242.0,2704.0,0.0
5968516000,0.010267686999779351,97392.9181929182,2211.0,2274.0,2281.0,1287.0,4944.0,-4940.0,-14708.0,769.0,-297.0,6.0,-526.0,-1262.0,-278.0,32426.0,5553408.0,2243.0,2704.0,0.0
5968772000,0.010267686999779351,97392.9181929182,2207.0,2275.0,2282.0,1291.0,4924.0,-4936.0,-14704.0,764.0,-295.0,2.0,-537.0,-1262.0,-279.0,32426.0,5553408.0,2244.0,2704.0,0.0
5969028000,0.010267686999779351,97392.9181929182,2202.0,2273.0,2281.0,1290.0,4888.0,-4960.0,-14764.0,805.0,-337.0,-15.0,-537.0,-1262.0,-279.0,32426.0,5553152.0,2241.0,2701.0,0.0
5969284000,0.010267686999779351,97392.9181929182,2211.0,2273.0,2281.0,1289.0,4872.0,-4916.0,-14800.0,828.0,-330.0,-22.0,-530.0,-1267.0,-280.0,32426.0,5553152.0,2248.0,2703.0,0.0
5969540000,0.010267686999779351,97392.9181929182,2226.0,2274.0,2278.0,1289.0,4864.0,-4900.0,-14748.0,798.0,-344.0,-33.0,-531.0,-1263.0,-275.0,32426.0,5553408.0,2251.0,2703.0,0.0
5969796000,0.010267686999779351,97392.9181929182,2222.0,2272.0,2278.0,1285.0,4868.0,-4876.0,-14768.0,774.0,-363.0,-46.0,-532.0,-1261.0,-281.0,32426.0,5553408.0,2248.0,2704.0,0.0
5970052000,0.010267686999779351,97392.9181929182,2198.0,2273.0,2281.0,1287.0,4872.0,-4888.0,-14808.0,753.0,-361.0,-49.0,-532.0,-1268.0,-281.0,32426.0,5553408.0,2236.0,2700.0,0.0
5970308000,0.010267686999779351,97392.9181929182,2196.0,2273.0,2281.0,1286.0,4920.0,-4952.0,-14856.0,749.0,-351.0,-36.0,-532.0,-1268.0,-281.0,32426.0,5553408.0,2239.0,2702.0,0.0
5970564000,0.010267686999779351,97392.9181929182,2212.0,2274.0,2284.0,1286.0,4876.0,-4948.0,-14760.0,772.0,-340.0,-33.0,-526.0,-1266.0,-276.0,32426.0,5552896.0,2247.0,2703.0,0.0
5970820000,0.010267686999779351,97392.9181929182,2214.0,2273.0,2282.0,1289.0,4932.0,-4984.0,-14736.0,781.0,-336.0,-11.0,-528.0,-1260.0,-281.0,32426.0,5552896.0,2246.0,2704.0,0.0
5971076000,0.010267686999779351,97392.9181929182,2193.0,2274.0,2284.0,1289.0,4920.0,-5008.0,-14752.0,804.0,-316.0,-1.0,-538.0,-1270.0,-277.0,32426.0,5553152.0,2236.0,2700.0,0.0
5971332000,0.010267686999779351,97392.9181929182,2202.0,2275.0,2283.0,1288.0,4940.0,-4992.0,-14760.0,795.0,-310.0,-11.0,-540.0,-1267.0,-272.0,32426.0,5553152.0,2245.0,2702.0,0.0
5971588000,0.010267481044650379,97394.8717948718,2216.0,2274.0,2283.0,1288.0,4928.0,-4988.0,-14732.0,818.0,-319.0,-4.0,-540.0,-1267.0,-272.0,32426.0,5553408.0,2250.0,2703.0,0.0
5971844000,0.010267686999779351,97392.9181929182,2223.0,2276.0,2281.0,1288.0,4900.0,-4952.0,-14736.0,794.0,-322.0,-23.0,-533.0,-1255.0,-278.0,32426.0,5553408.0,2247.0,2704.0,0.0
5972100000,0.010267686999779351,97392.9181929182,2203.0,2276.0,2281.0,1289.0,4940.0,-4968.0,-14716.0,776.0,-317.0,-2.0,-530.0,-1268.0,-278.0,32426.0,5553664.0,2237.0,2700.0,0.0
5972356000,0.010267686999779351,97392.9181929182,2210.0,2276.0,2281.0,1289.0,4956.0,-4940.0,-14792.0,741.0,-313.0,-12.0,-529.0,-1272.0,-278.0,32426.0,5553664.0,2246.0,2703.0,0.0
5972612000,0.010267686999779351,97392.9181929182,2218.0,2275.0,2281.0,1288.0,4952.0,-4960.0,-14800.0,751.0,-331.0,-37.0,-529.0,-1272.0,-278.0,32426.0,5552896.0,2250.0,2703.0,0.0
5972868000,0.010267686999779351,97392.9181929182,2226.0,2276.0,2281.0,1289.0,4968.0,-4972.0,-14772.0,749.0,-333.0,-44.0,-531.0,-1263.0,-276.0,32426.0,5552896.0,2252.0,2703.0,0.0
5973124000,0.010267686999779351,97392.9181929182,2207.0,2275.0,2283.0,1286.0,4960.0,-4948.0,-14768.0,753.0,-337.0,-10.0,-530.0,-1264.0,-282.0,32426.0,5553152.0,2238.0,2700.0,0.0
5973380000,0.010267686999779351,97392.9181929182,2217.0,2276.0,2281.0,1287.0,4972.0,-4928.0,-14748.0,759.0,-336.0,-14.0,-530.0,-1263.0,-283.0,32426.0,5553152.0,2247.0,2703.0,0.0
5973636000,0.010267686999779351,97392.9181929182,2229.0,2277.0,2284.0,1289.0,4964.0,-4944.0,-14804.0,759.0,-339.0,-24.0,-531.0,-1266.0,-285.0,32426.0,5553664.0,2251.0,2703.0,0.0
5973892000,0.010267686999779351,97392.9181929182,2230.0,2277.0,2284.0,1289.0,4968.0,-4980.0,-14756.0,755.0,-349.0,1.0,-531.0,-1266.0,-285.0,32426.0,5553664.0,2252.0,2703.0,0.0
5974148000,0.010267686999779351,97392.9181929182,2215.0,2278.0,2283.0,1291.0,4948.0,-4992.0,-14720.0,775.0,-329.0,-12.0,-530.0,-1268.0,-281.0,32426.0,5553664.0,2239.0,2700.0,0.0
5974404000,0.010267686999779351,97392.9181929182,2221.0,2275.0,2283.0,1288.0,4924.0,-4972.0,-14744.0,772.0,-334.0,7.0,-529.0,-1265.0,-278.0,32426.0,5553664.0,2247.0,2703.0,0.0
5974660000,0.010267686999779351,97392.9181929182,2232.0,2275.0,2284.0,1288.0,4920.0,-5004.0,-14752.0,792.0,-349.0,3.0,-537.0,-1266.0,-282.0,32426.0,5553408.0,2251.0,2703.0,0.0
5974916000,0.010267686999779351,97392.9181929182,2232.0,2274.0,2283.0,1287.0,4920.0,-5008.0,-14824.0,796.0,-346.0,-12.0,-533.0,-1267.0,-282.0,32426.0,5553408.0,2252.0,2703.0,0.0
5975172000,0.010267686999779351,97392.9181929182,2214.0,2273.0,2283.0,1289.0,4924.0,-4992.0,-14784.0,787.0,-333.0,-3.0,-533.0,-1267.0,-282.0,32426.0,5552896.0,2239.0,2700.0,0.0
5975428000,0.010267686999779351,97392.9181929182,2222.0,2272.0,2281.0,1288.0,4892.0,-4972.0,-14752.0,795.0,-337.0,5.0,-534.0,-1265.0,-278.0,32426.0,5552896.0,2247.0,2703.0,0.0
5975684000,0.010267686999779351,97392.9181929182,2232.0,2274.0,2280.0,1288.0,4844.0,-4964.0,-14788.0,763.0,-339.0,-14.0,-538.0,-1263.0,-282.0,32426.0,5553152.0,2251.0,2703.0,0.0
5975940000,0.010267686999779351,97392.9181929182,2233.0,2273.0,2285.0,1290.0,4880.0,-4992.0,-14776.0,790.0,-350.0,-9.0,-534.0,-1263.0,-278.0,32426.0,5553152.0,2252.0,2703.0,0.0
5976196000,0.010267686999779351,97392.9181929182,2222.0,2272.0,2284.0,1289.0,4840.0,-4968.0,-14748.0,762.0,-342.0,-18.0,-528.0,-1262.0,-282.0,32426.0,5553664.0,2243.0,2699.0,0.0
5976452000,0.010267686999779351,97392.9181929182,2226.0,2273.0,2284.0,1289.0,4908.0,-4996.0,-14744.0,746.0,-327.0,-3.0,-528.0,-1262.0,-282.0,32426.0,5553664.0,2249.0,2703.0,0.0
5976708000,0.010267686999779351,97392.9181929182,2231.0,2272.0,2284.0,1290.0,4876.0,-5032.0,-14756.0,750.0,-330.0,-21.0,-529.0,-1266.0,-273.0,32426.0,5553152.0,2252.0,2703.0,0.0
5976964000,0.010267686999779351,97392.9181929182,2225.0,2273.0,2283.0,1287.0,4912.0,-5064.0,-14780.0,748.0,-334.0,-18.0,-529.0,-1261.0,-278.0,32426.0,5553152.0,2248.0,2704.0,0.0
5977220000,0.010267686999779351,97392.9181929182,2213.0,2273.0,2287.0,1287.0,4900.0,-5056.0,-14772.0,794.0,-322.0,-8.0,-550.0,-1256.0,-278.0,32426.0,5553920.0,2241.0,2699.0,0.0
5977476000,0.010267686999779351,97392.9181929182,2214.0,2273.0,2285.0,1289.0,4924.0,-4976.0,-14792.0,814.0,-323.0,-4.0,-550.0,-1256.0,-278.0,32426.0,5553920.0,2248.0,2703.0,0.0
5977732000,0.010267686999779351,97392.9181929182,2229.0,2274.0,2285.0,1286.0,4916.0,-4988.0,-14776.0,828.0,-334.0,-13.0,-521.0,-1264.0,-283.0,32426.0,5553664.0,2251.0,2703.0,0.0
5977988000,0.010267686999779351,97392.9181929182,2224.0,2275.0,2283.0,1285.0,4924.0,-4980.0,-14832.0,819.0,-314.0,-7.0,-530.0,-1262.0,-274.0,32426.0,5553664.0,2248.0,2704.0,0.0
5978244000,0.010267686999779351,97392.9181929182,2199.0,2276.0,2281.0,1286.0,4936.0,-4924.0,-14816.0,780.0,-307.0,-22.0,-531.0,-1264.0,-271.0,32426.0,5553152.0,2236.0,2700.0,0.0
5978500000,0.010267686999779351,97392.9181929182,2207.0,2275.0,2281.0,1288.0,4936.0,-4928.0,-14768.0,780.0,-307.0,-22.0,-534.0,-1263.0,-278.0,32426.0,5553152.0,2246.0,2703.0,0.0
5978756000,0.010267686999779351,97392.9181929182,2217.0,2277.0,2281.0,1289.0,4952.0,-4980.0,-14764.0,792.0,-318.0,-17.0,-534.0,-1263.0,-278.0,32426.0,5552896.0,2250.0,2703.0,0.0
5979012000,0.010267686999779351,97392.9181929182,2226.0,2277.0,2284.0,1289.0,4968.0,-4968.0,-14740.0,749.0,-323.0,-10.0,-538.0,-1264.0,-275.0,32426.0,5552896.0,2252.0,2703.0,0.0
5979268000,0.010267686999779351,97392.9181929182,2207.0,2276.0,2283.0,1289.0,4968.0,-4980.0,-14720.0,743.0,-325.0,-1.0,-533.0,-1269.0,-280.0,32426.0,5553152.0,2238.0,2700.0,0.0
5979524000,0.010267686999779351,97392.9181929182,2198.0,2277.0,2283.0,1290.0,4972.0,-4984.0,-14708.0,760.0,-349.0,-9.0,-532.0,-1264.0,-279.0,32426.0,5553152.0,2240.0,2702.0,0.0
5979780000,0.010267686999779351,97392.9181929182,2192.0,2276.0,2284.0,1293.0,4956.0,-5008.0,-14720.0,734.0,-337.0,4.0,-535.0,-1261.0,-276.0,32426.0,5553920.0,2240.0,2701.0,0.0
5980036000,0.010267686999779351,97392.9181929182,2208.0,2276.0,2285.0,1293.0,4956.0,-5040.0,-14728.0,746.0,-355.0,-5.0,-535.0,-1261.0,-276.0,32426.0,5553920.0,2247.0,2703.0,0.0
5980292000,0.010267686999779351,97392.9181929182,2179.0,2276.0,2287.0,1292.0,4956.0,-5044.0,-14732.0,743.0,-346.0,-11.0,-538.0,-1262.0,-278.0,32426.0,5553152.0,2453.0,2686.0,0.0
5980548000,0.010267686999779351,97392.9181929182,2166.0,2275.0,2286.0,1292.0,4976.0,-5044.0,-14692.0,759.0,-360.0,-28.0,-534.0,-1261.0,-285.0,32426.0,5553152.0,2344.0,2703.0,0.0
5980804000,0.010267686999779351,97392.9181929182,2274.0,2276.0,2288.0,1289.0,4920.0,-5076.0,-14736.0,748.0,-363.0,-6.0,-524.0,-1260.0,-277.0,32426.0,5553408.0,2295.0,2703.0,0.0
5981060000,0.010267686999779351,97392.9181929182,2292.0,2275.0,2287.0,1287.0,4936.0,-5084.0,-14760.0,760.0,-348.0,-8.0,-524.0,-1265.0,-277.0,32426.0,5553408.0,2273.0,2703.0,0.0
5981316000,0.010267686999779351,97392.9181929182,2258.0,2274.0,2288.0,1287.0,4936.0,-5104.0,-14788.0,751.0,-339.0,-8.0,-524.0,-1265.0,-277.0,32426.0,5553664.0,2246.0,2698.0,0.0
5981572000,0.010267686999779351,97392.9181929182,2252.0,2276.0,2289.0,1288.0,4868.0,-5064.0,-14784.0,786.0,-339.0,-2.0,-526.0,-1265.0,-279.0,32426.0,5553664.0,2251.0,2703.0,0.0
5981828000,0.010267686999779351,97392.9181929182,2244.0,2276.0,2285.0,1287.0,4908.0,-5096.0,-14736.0,782.0,-330.0,-10.0,-527.0,-1260.0,-280.0,32426.0,5553664.0,2252.0,2703.0,0.0
5982084000,0.010267686999779351,97392.9181929182,2244.0,2273.0,2289.0,1289.0,4928.0,-5056.0,-14728.0,779.0,-339.0,3.0,-535.0,-1260.0,-279.0,32426.0,5553664.0,2253.0,2703.0,0.0
5982340000,0.010267686999779351,97392.9181929182,2214.0,2276.0,2287.0,1291.0,4932.0,-5056.0,-14740.0,818.0,-342.0,-18.0,-536.0,-1265.0,-276.0,32426.0,5553152.0,2237.0,2698.0,0.0
5982596000,0.010267686999779351,97392.9181929182,2203.0,2275.0,2287.0,1291.0,4936.0,-5060.0,-14744.0,835.0,-333.0,-7.0,-536.0,-1265.0,-276.0,32426.0,5553152.0,2240.0,2702.0,0.0
5982852000,0.010267686999779351,97392.9181929182,2215.0,2275.0,2283.0,1292.0,4972.0,-4992.0,-14708.0,831.0,-324.0,-13.0,-532.0,-1261.0,-276.0,32426.0,5553920.0,2247.0,2703.0,0.0
5983108000,0.010267686999779351,97392.9181929182,2228.0,2275.0,2284.0,1290.0,4900.0,-5012.0,-14704.0,820.0,-329.0,-17.0,-535.0,-1263.0,-275.0,32426.0,5553920.0,2251.0,2703.0,0.0
5983364000,0.010267686999779351,97392.9181929182,2201.0,2276.0,2283.0,1291.0,4936.0,-5000.0,-14712.0,814.0,-347.0,-9.0,-525.0,-1258.0,-278.0,32426.0,5553664.0,2236.0,2698.0,0.0
5983620000,0.010267686999779351,97392.9181929182,2207.0,2273.0,2284.0,1288.0,4964.0,-5008.0,-14736.0,792.0,-331.0,-18.0,-525.0,-1258.0,-278.0,32426.0,5553664.0,2246.0,2703.0,0.0
5983876000,0.010267686999779351,97392.9181929182,2220.0,2276.0,2285.0,1289.0,4944.0,-5024.0,-14788.0,762.0,-343.0,-34.0,-536.0,-1259.0,-279.0,32426.0,5553408.0,2250.0,2703.0,0.0
5984132000,0.010267686999779351,97392.9181929182,2223.0,2274.0,2285.0,1290.0,4908.0,-4960.0,-14732.0,771.0,-344.0,-24.0,-530.0,-1266.0,-277.0,32426.0,5553408.0,2247.0,2704.0,0.0
5984388000,0.010267686999779351,97392.9181929182,2197.0,2275.0,2284.0,1288.0,4932.0,-5000.0,-14724.0,774.0,-336.0,-14.0,-528.0,-1266.0,-272.0,32426.0,5553664.0,2234.0,2698.0,0.0
