Shimmer_A5E0_Timestamp_Unix_CAL,Shimmer_A5E0_GSR_Skin_Conductance_CAL_uS,Shimmer_A5E0_GSR_Skin_Resistance_CAL_kOhm,Shimmer_A5E0_PPG_A13_CAL_mV,Shimmer_A5E0_Accel_LN_X_CAL_m/s^2,Shimmer_A5E0_Accel_LN_Y_CAL_m/s^2,Shimmer_A5E0_Accel_LN_Z_CAL_m/s^2,Shimmer_A5E0_Accel_WR_X_CAL_m/s^2,Shimmer_A5E0_Accel_WR_Y_CAL_m/s^2,Shimmer_A5E0_Accel_WR_Z_CAL_m/s^2,Shimmer_A5E0_Gyro_X_CAL_deg/s,Shimmer_A5E0_Gyro_Y_CAL_deg/s,Shimmer_A5E0_Gyro_Z_CAL_deg/s,Shimmer_A5E0_Mag_X_CAL_local,Shimmer_A5E0_Mag_Y_CAL_local,Shimmer_A5E0_Mag_Z_CAL_local,Shimmer_A5E0_Temperature_BMP280_CAL_Celcius,Shimmer_A5E0_Pressure_BMP280_CAL_Pa,Shimmer_A5E0_Ext_Exp_A7_CAL_mV,Shimmer_A5E0_VSenseBatt_CAL_mV,Shimmer_A5E0_PPGtoHR_CAL_BPM
8529130000,0.7494509516837482,1334.3101343101343,2312.0,2048.0,2069.0,2853.0,520.0,-740.0,15556.0,863.0,-345.0,-6.0,-1995.0,-4295.0,-12078.0,32768.0,5519872.0,2272.0,2822.0,0.0
8529386000,0.7494509516837482,1334.3101343101343,2328.0,2046.0,2069.0,2855.0,508.0,-752.0,15540.0,883.0,-355.0,-36.0,-1995.0,-4295.0,-12078.0,32768.0,5519872.0,2279.0,2823.0,0.0
8529642000,0.7494509516837482,1334.3101343101343,2345.0,2047.0,2069.0,2855.0,496.0,-716.0,15580.0,868.0,-364.0,-26.0,-1992.0,-4298.0,-12079.0,32768.0,5519360.0,2283.0,2823.0,0.0
8529898000,0.7494509516837482,1334.3101343101343,2320.0,2048.0,2068.0,2854.0,492.0,-740.0,15544.0,860.0,-357.0,-21.0,-1999.0,-4303.0,-12078.0,32768.0,5519360.0,2268.0,2818.0,0.0
8530154000,0.7494509516837482,1334.3101343101343,2328.0,2048.0,2068.0,2856.0,488.0,-712.0,15600.0,864.0,-336.0,-30.0,-1998.0,-4302.0,-12078.0,32768.0,5519872.0,2278.0,2823.0,0.0
8530410000,0.7494509516837482,1334.3101343101343,2323.0,2048.0,2069.0,2857.0,544.0,-716.0,15552.0,886.0,-350.0,-16.0,-1998.0,-4302.0,-12078.0,32768.0,5519872.0,2276.0,2822.0,0.0
8530666000,0.7494509516837482,1334.3101343101343,2322.0,2049.0,2070.0,2855.0,488.0,-724.0,15540.0,873.0,-338.0,-23.0,-1999.0,-4305.0,-12072.0,32768.0,5519872.0,2274.0,2822.0,0.0
8530922000,0.7494509516837482,1334.3101343101343,2307.0,2048.0,2069.0,2855.0,504.0,-692.0,15576.0,860.0,-334.0,-3.0,-2000.0,-4303.0,-12076.0,32768.0,5519872.0,2488.0,2806.0,0.0
8531178000,0.02998857578065499,33346.031746031746,2293.0,2048.0,2069.0,2854.0,488.0,-732.0,15612.0,863.0,-352.0,-35.0,-2005.0,-4296.0,-12077.0,32768.0,5520384.0,2371.0,2822.0,0.0
8531434000,0.02998857578065499,33346.031746031746,2189.0,2049.0,2069.0,2855.0,524.0,-744.0,15520.0,857.0,-335.0,-50.0,-2001.0,-4300.0,-12076.0,32768.0,5520384.0,2324.0,2823.0,0.0
8531690000,0.02998857578065499,33346.031746031746,2286.0,2049.0,2071.0,2853.0,536.0,-748.0,15540.0,864.0,-342.0,-24.0,-2001.0,-4300.0,-12076.0,32768.0,5520384.0,2297.0,2822.0,0.0
8531946000,0.02998857578065499,33346.031746031746,2309.0,2047.0,2070.0,2855.0,496.0,-752.0,15552.0,868.0,-332.0,-33.0,-2000.0,-4301.0,-12077.0,32768.0,5520384.0,2497.0,2806.0,0.0
8532202000,0.02998857578065499,33346.031746031746,2312.0,2049.0,2070.0,2856.0,480.0,-728.0,15580.0,875.0,-355.0,-27.0,-1996.0,-4300.0,-12068.0,32768.0,5520128.0,2382.0,2823.0,0.0
8532458000,0.02998857578065499,33346.031746031746,2211.0,2048.0,2068.0,2855.0,512.0,-736.0,15608.0,868.0,-326.0,-18.0,-1996.0,-4299.0,-12075.0,32768.0,5520128.0,2330.0,2823.0,0.0
8532714000,0.02998857578065499,33346.031746031746,2300.0,2048.0,2067.0,2857.0,508.0,-748.0,15584.0,867.0,-331.0,-21.0,-1987.0,-4300.0,-12077.0,32768.0,5520384.0,2298.0,2821.0,0.0
8532970000,0.02998857578065499,33346.031746031746,2322.0,2048.0,2070.0,2855.0,548.0,-720.0,15556.0,884.0,-352.0,-4.0,-1987.0,-4300.0,-12077.0,32768.0,5520384.0,2282.0,2819.0,0.0
8533226000,0.02998857578065499,33346.031746031746,2336.0,2047.0,2068.0,2856.0,504.0,-748.0,15632.0,869.0,-350.0,-18.0,-1995.0,-4293.0,-12076.0,32768.0,5520128.0,2284.0,2823.0,0.0
8533482000,0.02998857578065499,33346.031746031746,2307.0,2048.0,2069.0,2856.0,508.0,-684.0,15592.0,882.0,-349.0,-12.0,-1991.0,-4292.0,-12069.0,32768.0,5520128.0,2484.0,2802.0,0.0
8533738000,0.02998857578065499,33346.031746031746,2287.0,2048.0,2071.0,2854.0,508.0,-760.0,15600.0,872.0,-349.0,-31.0,-2004.0,-4301.0,-12075.0,32768.0,5520384.0,2369.0,2822.0,0.0
8533994000,0.015299031621734712,65363.61416361416,2166.0,2049.0,2069.0,2854.0,568.0,-720.0,15548.0,871.0,-342.0,-34.0,-2000.0,-4296.0,-12075.0,32768.0,5520384.0,2314.0,2819.0,0.0
8534250000,0.015299031621734712,65363.61416361416,2265.0,2049.0,2068.0,2856.0,524.0,-704.0,15576.0,869.0,-363.0,-32.0,-2000.0,-4296.0,-12075.0,32768.0,5520640.0,2292.0,2822.0,0.0
8534506000,0.015299031621734712,65363.61416361416,2316.0,2048.0,2068.0,2856.0,512.0,-680.0,15604.0,873.0,-351.0,-16.0,-2000.0,-4300.0,-12071.0,32768.0,5520640.0,2289.0,2823.0,0.0
8534762000,0.015299031621734712,65363.61416361416,2326.0,2048.0,2068.0,2858.0,476.0,-712.0,15616.0,887.0,-330.0,-21.0,-1998.0,-4297.0,-12075.0,32768.0,5520640.0,2280.0,2822.0,0.0
8535018000,0.015299031621734712,65363.61416361416,2312.0,2048.0,2069.0,2854.0,532.0,-688.0,15584.0,863.0,-347.0,-27.0,-2000.0,-4301.0,-12072.0,32768.0,5520640.0,2489.0,2805.0,0.0
8535274000,0.015299031621734712,65363.61416361416,2296.0,2048.0,2069.0,2856.0,540.0,-728.0,15584.0,877.0,-342.0,-27.0,-2000.0,-4301.0,-12072.0,32768.0,5520640.0,2371.0,2822.0,0.0
8535530000,0.015299031621734712,65363.61416361416,2197.0,2047.0,2069.0,2858.0,496.0,-708.0,15628.0,868.0,-359.0,-47.0,-1998.0,-4299.0,-12068.0,32768.0,5520640.0,2325.0,2823.0,0.0
8535786000,0.015299031621734712,65363.61416361416,2267.0,2049.0,2071.0,2857.0,516.0,-736.0,15604.0,874.0,-337.0,-2.0,-2002.0,-4299.0,-12074.0,32768.0,5520896.0,2502.0,2802.0,0.0
8536042000,0.015299031621734712,65363.61416361416,2259.0,2048.0,2068.0,2855.0,536.0,-724.0,15640.0,876.0,-370.0,-40.0,-1996.0,-4297.0,-12071.0,32768.0,5520896.0,2592.0,2806.0,0.0
8536298000,0.015299031621734712,65363.61416361416,2348.0,2049.0,2069.0,2853.0,524.0,-704.0,15540.0,872.0,-347.0,-13.0,-1995.0,-4298.0,-12073.0,32768.0,5520640.0,2419.0,2822.0,0.0
8536554000,0.015299031621734712,65363.61416361416,2268.0,2048.0,2069.0,2855.0,476.0,-696.0,15592.0,888.0,-334.0,-24.0,-1995.0,-4298.0,-12073.0,32768.0,5520640.0,2347.0,2823.0,0.0
8536810000,0.010266863228834468,97400.73260073259,2149.0,2047.0,2069.0,2856.0,488.0,-728.0,15664.0,860.0,-349.0,-24.0,-1992.0,-4299.0,-12076.0,32768.0,5520896.0,2307.0,2822.0,0.0
8537066000,0.010266863228834468,97400.73260073259,2239.0,2048.0,2069.0,2853.0,520.0,-728.0,15584.0,881.0,-343.0,-24.0,-1997.0,-4301.0,-12070.0,32768.0,5520896.0,2281.0,2820.0,0.0
8537322000,0.010266863228834468,97400.73260073259,2291.0,2047.0,2069.0,2854.0,504.0,-760.0,15572.0,861.0,-359.0,-39.0,-1985.0,-4299.0,-12073.0,32768.0,5520640.0,2284.0,2823.0,0.0
8537578000,0.010266863228834468,97400.73260073259,2309.0,2049.0,2067.0,2854.0,528.0,-716.0,15556.0,876.0,-353.0,-10.0,-1996.0,-4296.0,-12072.0,32768.0,5520640.0,2278.0,2822.0,0.0
8537834000,0.010266863228834468,97400.73260073259,2314.0,2049.0,2068.0,2855.0,500.0,-680.0,15640.0,879.0,-372.0,-17.0,-1996.0,-4296.0,-12072.0,32768.0,5520640.0,2276.0,2822.0,0.0
8538090000,0.010266863228834468,97400.73260073259,2304.0,2048.0,2068.0,2857.0,460.0,-700.0,15640.0,875.0,-358.0,-35.0,-1995.0,-4299.0,-12068.0,32768.0,5520640.0,2488.0,2806.0,0.0
8538346000,0.010266863228834468,97400.73260073259,2292.0,2048.0,2070.0,2856.0,472.0,-748.0,15612.0,882.0,-353.0,-22.0,-2008.0,-4295.0,-12068.0,32768.0,5520128.0,2371.0,2822.0,0.0
8538602000,0.010266863228834468,97400.73260073259,2192.0,2048.0,2067.0,2854.0,480.0,-756.0,15588.0,864.0,-339.0,-20.0,-2002.0,-4298.0,-12069.0,32768.0,5520128.0,2325.0,2823.0,0.0
8538858000,0.010266863228834468,97400.73260073259,2288.0,2047.0,2070.0,2855.0,540.0,-740.0,15612.0,856.0,-332.0,-31.0,-2002.0,-4298.0,-12069.0,32768.0,5520896.0,2295.0,2821.0,0.0
8539114000,0.010266863228834468,97400.73260073259,2303.0,2049.0,2069.0,2856.0,532.0,-696.0,15632.0,881.0,-348.0,-15.0,-1998.0,-4302.0,-12071.0,32768.0,5520896.0,2496.0,2805.0,0.0
8539370000,0.010266863228834468,97400.73260073259,2309.0,2048.0,2069.0,2854.0,520.0,-744.0,15616.0,853.0,-366.0,-16.0,-2000.0,-4297.0,-12072.0,32768.0,5521408.0,2381.0,2823.0,0.0
8539626000,0.010266863228834468,97400.73260073259,2210.0,2049.0,2068.0,2855.0,484.0,-720.0,15600.0,857.0,-323.0,-28.0,-2001.0,-4296.0,-12069.0,32768.0,5521408.0,2330.0,2823.0,0.0
8539882000,0.010266863228834468,97400.73260073259,2276.0,2047.0,2068.0,2856.0,524.0,-716.0,15580.0,870.0,-346.0,-18.0,-1995.0,-4300.0,-12069.0,32768.0,5521408.0,2504.0,2801.0,0.0
8540138000,0.010266863228834468,97400.73260073259,2284.0,2049.0,2068.0,2855.0,536.0,-728.0,15596.0,864.0,-348.0,-7.0,-1995.0,-4300.0,-12069.0,32768.0,5521408.0,2375.0,2819.0,0.0
8540394000,0.010266863228834468,97400.73260073259,2175.0,2048.0,2071.0,2854.0,488.0,-768.0,15580.0,869.0,-361.0,-17.0,-2001.0,-4295.0,-12072.0,32768.0,5521152.0,2320.0,2822.0,0.0
8540650000,0.010266863228834468,97400.73260073259,2289.0,2049.0,2068.0,2856.0,496.0,-732.0,15640.0,869.0,-357.0,-41.0,-1994.0,-4299.0,-12068.0,32768.0,5521152.0,2302.0,2823.0,0.0
8540906000,0.010266863228834468,97400.73260073259,2327.0,2049.0,2070.0,2856.0,524.0,-704.0,15620.0,870.0,-351.0,-14.0,-2021.0,-4292.0,-12064.0,32768.0,5520640.0,2287.0,2822.0,0.0
8541162000,0.010266863228834468,97400.73260073259,2323.0,2048.0,2068.0,2856.0,516.0,-724.0,15584.0,891.0,-341.0,-27.0,-1986.0,-4294.0,-12066.0,32768.0,5520640.0,2276.0,2819.0,0.0
8541418000,0.010266863228834468,97400.73260073259,2322.0,2047.0,2068.0,2856.0,520.0,-736.0,15584.0,891.0,-341.0,-27.0,-1986.0,-4294.0,-12066.0,32768.0,5520640.0,2274.0,2822.0,0.0
8541674000,0.010266863228834468,97400.73260073259,2322.0,2048.0,2069.0,2856.0,484.0,-748.0,15604.0,847.0,-350.0,-19.0,-1991.0,-4295.0,-12066.0,32768.0,5520640.0,2274.0,2822.0,0.0
8541930000,0.010267069159178435,97398.77899877899,2322.0,2047.0,2071.0,2856.0,528.0,-732.0,15616.0,887.0,-355.0,-45.0,-1989.0,-4290.0,-12071.0,32768.0,5520640.0,2274.0,2822.0,0.0
8542186000,0.010266863228834468,97400.73260073259,2304.0,2049.0,2070.0,2857.0,496.0,-700.0,15640.0,884.0,-349.0,-24.0,-1996.0,-4297.0,-12063.0,32768.0,5520640.0,2486.0,2805.0,0.0
8542442000,0.010266863228834468,97400.73260073259,2285.0,2048.0,2069.0,2854.0,508.0,-736.0,15608.0,867.0,-354.0,-13.0,-1989.0,-4301.0,-12071.0,32768.0,5521152.0,2369.0,2821.0,0.0
8542698000,0.010266863228834468,97400.73260073259,2188.0,2048.0,2070.0,2855.0,484.0,-744.0,15616.0,851.0,-357.0,-31.0,-1989.0,-4301.0,-12071.0,32768.0,5521152.0,2323.0,2823.0,0.0
8542954000,0.010266863228834468,97400.73260073259,2300.0,2048.0,2069.0,2855.0,504.0,-732.0,15604.0,886.0,-355.0,-28.0,-1997.0,-4293.0,-12063.0,32768.0,5520640.0,2303.0,2823.0,0.0
8543210000,0.010266863228834468,97400.73260073259,2317.0,2048.0,2069.0,2856.0,516.0,-720.0,15652.0,867.0,-357.0,-37.0,-2004.0,-4298.0,-12068.0,32768.0,5520640.0,2500.0,2805.0,0.0
8543466000,0.010266863228834468,97400.73260073259,2303.0,2049.0,2069.0,2856.0,508.0,-720.0,15632.0,890.0,-369.0,-30.0,-1998.0,-4295.0,-12064.0,32768.0,5521152.0,2376.0,2822.0,0.0
8543722000,0.010266863228834468,97400.73260073259,2183.0,2048.0,2068.0,2855.0,764.0,-712.0,15636.0,881.0,-351.0,-33.0,-1998.0,-4295.0,-12064.0,32768.0,5521152.0,2320.0,2822.0,0.0
8543978000,0.010266863228834468,97400.73260073259,2286.0,2048.0,2069.0,2857.0,544.0,-736.0,15592.0,862.0,-352.0,-10.0,-2000.0,-4288.0,-12069.0,32768.0,5521408.0,2295.0,2822.0,0.0
8544234000,0.010266863228834468,97400.73260073259,2306.0,2046.0,2071.0,2855.0,540.0,-744.0,15620.0,848.0,-339.0,-9.0,-2000.0,-4298.0,-12064.0,32768.0,5521408.0,2275.0,2820.0,0.0
8544490000,0.010266863228834468,97400.73260073259,2313.0,2048.0,2070.0,2855.0,532.0,-708.0,15584.0,875.0,-353.0,-32.0,-1998.0,-4295.0,-12066.0,32768.0,5521152.0,2274.0,2822.0,0.0
8544746000,0.010266863228834468,97400.73260073259,2316.0,2048.0,2070.0,2856.0,524.0,-744.0,15636.0,860.0,-331.0,-10.0,-2005.0,-4297.0,-12069.0,32768.0,5521152.0,2274.0,2822.0,0.0
8545002000,0.010266863228834468,97400.73260073259,2310.0,2049.0,2068.0,2856.0,508.0,-692.0,15612.0,862.0,-354.0,-21.0,-2005.0,-4297.0,-12069.0,32768.0,5520896.0,2272.0,2821.0,0.0
8545258000,0.010266863228834468,97400.73260073259,2316.0,2047.0,2068.0,2856.0,504.0,-708.0,15576.0,874.0,-347.0,-28.0,-2013.0,-4303.0,-12071.0,32768.0,5520896.0,2271.0,2821.0,0.0
8545514000,0.010266863228834468,97400.73260073259,2330.0,2048.0,2070.0,2855.0,516.0,-744.0,15652.0,865.0,-346.0,-19.0,-1999.0,-4298.0,-12062.0,32768.0,5520896.0,2279.0,2823.0,0.0
8545770000,0.010266863228834468,97400.73260073259,2344.0,2049.0,2068.0,2855.0,588.0,-728.0,15612.0,858.0,-342.0,-21.0,-1989.0,-4292.0,-12064.0,32768.0,5520896.0,2283.0,2823.0,0.0
8546026000,0.010266863228834468,97400.73260073259,2333.0,2048.0,2069.0,2854.0,500.0,-756.0,15620.0,874.0,-346.0,-12.0,-1990.0,-4299.0,-12069.0,32768.0,5521408.0,2276.0,2821.0,0.0
8546282000,0.010266863228834468,97400.73260073259,2325.0,2047.0,2069.0,2856.0,504.0,-748.0,15580.0,869.0,-329.0,-29.0,-1990.0,-4299.0,-12069.0,32768.0,5521408.0,2273.0,2821.0,0.0
8546538000,0.010266863228834468,97400.73260073259,2334.0,2049.0,2069.0,2854.0,544.0,-700.0,15564.0,882.0,-358.0,-12.0,-1988.0,-4295.0,-12071.0,32768.0,5520896.0,2280.0,2823.0,0.0
8546794000,0.010266863228834468,97400.73260073259,2302.0,2048.0,2069.0,2856.0,484.0,-696.0,15560.0,869.0,-337.0,-29.0,-1994.0,-4298.0,-12063.0,32768.0,5520896.0,2482.0,2802.0,0.0
8547050000,0.010266863228834468,97400.73260073259,2280.0,2049.0,2067.0,2855.0,532.0,-704.0,15592.0,856.0,-353.0,-12.0,-1990.0,-4298.0,-12068.0,32768.0,5520640.0,2368.0,2822.0,0.0
8547306000,0.010266863228834468,97400.73260073259,2360.0,2047.0,2067.0,2856.0,536.0,-756.0,15568.0,903.0,-344.0,-27.0,-1992.0,-4291.0,-12065.0,32768.0,5520640.0,2530.0,2805.0,0.0
8547562000,0.010266863228834468,97400.73260073259,2352.0,2047.0,2069.0,2855.0,512.0,-708.0,15596.0,858.0,-342.0,-21.0,-1992.0,-4291.0,-12065.0,32768.0,5520640.0,2390.0,2822.0,0.0
8547818000,0.010266863228834468,97400.73260073259,2244.0,2047.0,2069.0,2855.0,540.0,-708.0,15572.0,868.0,-355.0,-29.0,-1996.0,-4298.0,-12066.0,32768.0,5520640.0,2334.0,2823.0,0.0
8548074000,0.010266863228834468,97400.73260073259,2324.0,2048.0,2068.0,2858.0,496.0,-748.0,15644.0,864.0,-342.0,-24.0,-1998.0,-4297.0,-12067.0,32768.0,5520384.0,2301.0,2822.0,0.0
8548330000,0.010266863228834468,97400.73260073259,2329.0,2048.0,2068.0,2856.0,516.0,-728.0,15608.0,895.0,-351.0,-9.0,-2003.0,-4291.0,-12065.0,32768.0,5520384.0,2500.0,2806.0,0.0
8548586000,0.010266863228834468,97400.73260073259,2309.0,2048.0,2070.0,2856.0,532.0,-740.0,15584.0,877.0,-332.0,-36.0,-2003.0,-4291.0,-12065.0,32768.0,5519872.0,2376.0,2822.0,0.0
8548842000,0.010266863228834468,97400.73260073259,2209.0,2047.0,2069.0,2856.0,544.0,-724.0,15636.0,874.0,-330.0,-31.0,-2005.0,-4297.0,-12068.0,32768.0,5519872.0,2327.0,2823.0,0.0
8549098000,0.010267069159178435,97398.77899877899,2103.0,2047.0,2069.0,2855.0,504.0,-712.0,15652.0,875.0,-354.0,-14.0,-2000.0,-4302.0,-12068.0,32768.0,5520384.0,2304.0,2823.0,0.0
8549354000,0.010266863228834468,97400.73260073259,2223.0,2048.0,2068.0,2856.0,508.0,-732.0,15612.0,864.0,-357.0,2.0,-1997.0,-4301.0,-12063.0,32768.0,5520384.0,2286.0,2821.0,0.0
8549610000,0.010266863228834468,97400.73260073259,2278.0,2049.0,2069.0,2856.0,500.0,-680.0,15616.0,872.0,-352.0,-35.0,-1991.0,-4294.0,-12068.0,32768.0,5520896.0,2279.0,2822.0,0.0
8549866000,0.010266863228834468,97400.73260073259,2316.0,2048.0,2070.0,2857.0,504.0,-744.0,15584.0,868.0,-345.0,-41.0,-1991.0,-4294.0,-12068.0,32768.0,5520896.0,2283.0,2823.0,0.0
8550122000,0.010266863228834468,97400.73260073259,2325.0,2048.0,2069.0,2854.0,520.0,-724.0,15620.0,854.0,-344.0,-34.0,-1998.0,-4290.0,-12069.0,32768.0,5521152.0,2278.0,2822.0,0.0
8550378000,0.010266863228834468,97400.73260073259,2323.0,2048.0,2070.0,2855.0,504.0,-716.0,15636.0,873.0,-356.0,-28.0,-2002.0,-4300.0,-12067.0,32768.0,5521152.0,2274.0,2821.0,0.0
8550634000,0.010266863228834468,97400.73260073259,2330.0,2049.0,2068.0,2855.0,496.0,-708.0,15616.0,864.0,-350.0,-17.0,-1997.0,-4303.0,-12069.0,32768.0,5520640.0,2280.0,2823.0,0.0
8550890000,0.010266863228834468,97400.73260073259,2329.0,2048.0,2068.0,2856.0,496.0,-724.0,15592.0,868.0,-337.0,-32.0,-1994.0,-4297.0,-12065.0,32768.0,5520640.0,2277.0,2822.0,0.0
8551146000,0.010266863228834468,97400.73260073259,2332.0,2048.0,2068.0,2857.0,516.0,-712.0,15556.0,872.0,-353.0,-36.0,-1994.0,-4297.0,-12065.0,32768.0,5520384.0,2275.0,2822.0,0.0
8551402000,0.010266863228834468,97400.73260073259,2311.0,2048.0,2070.0,2857.0,504.0,-688.0,15636.0,869.0,-345.0,-27.0,-1996.0,-4298.0,-12068.0,32768.0,5520384.0,2488.0,2806.0,0.0
8551658000,0.010266863228834468,97400.73260073259,2305.0,2049.0,2068.0,2857.0,520.0,-732.0,15600.0,869.0,-372.0,-15.0,-1999.0,-4295.0,-12066.0,32768.0,5521408.0,2377.0,2823.0,0.0
8551914000,0.010266863228834468,97400.73260073259,2202.0,2048.0,2068.0,2857.0,536.0,-700.0,15616.0,892.0,-349.0,-21.0,-1997.0,-4298.0,-12066.0,32768.0,5521408.0,2328.0,2823.0,0.0
8552170000,0.010266863228834468,97400.73260073259,2293.0,2048.0,2069.0,2856.0,512.0,-696.0,15616.0,874.0,-329.0,-26.0,-1997.0,-4298.0,-12066.0,32768.0,5520640.0,2297.0,2821.0,0.0
8552426000,0.010266863228834468,97400.73260073259,2326.0,2047.0,2067.0,2856.0,548.0,-748.0,15600.0,885.0,-337.0,-27.0,-1986.0,-4297.0,-12068.0,32768.0,5520640.0,2283.0,2821.0,0.0
8552682000,0.010266863228834468,97400.73260073259,2338.0,2049.0,2068.0,2857.0,528.0,-700.0,15588.0,890.0,-331.0,-20.0,-1997.0,-4299.0,-12065.0,32768.0,5520896.0,2284.0,2823.0,0.0
8552938000,0.010266863228834468,97400.73260073259,2341.0,2047.0,2069.0,2856.0,500.0,-732.0,15636.0,863.0,-366.0,-23.0,-2001.0,-4297.0,-12072.0,32768.0,5520896.0,2279.0,2822.0,0.0
8553194000,0.010266863228834468,97400.73260073259,2333.0,2048.0,2068.0,2854.0,508.0,-724.0,15612.0,875.0,-348.0,-33.0,-1991.0,-4294.0,-12071.0,32768.0,5521152.0,2276.0,2822.0,0.0
8553450000,0.010266863228834468,97400.73260073259,2324.0,2049.0,2070.0,2856.0,512.0,-724.0,15604.0,885.0,-351.0,-27.0,-1991.0,-4294.0,-12071.0,32768.0,5521152.0,2273.0,2821.0,0.0
8553706000,0.010266863228834468,97400.73260073259,2332.0,2048.0,2069.0,2857.0,760.0,-692.0,15596.0,859.0,-342.0,-14.0,-2003.0,-4299.0,-12070.0,32768.0,5520896.0,2280.0,2823.0,0.0
8553962000,0.010266863228834468,97400.73260073259,2346.0,2049.0,2068.0,2857.0,484.0,-752.0,15596.0,857.0,-336.0,-30.0,-2000.0,-4299.0,-12061.0,32768.0,5520896.0,2283.0,2823.0,0.0
8554218000,0.010266863228834468,97400.73260073259,2340.0,2049.0,2068.0,2858.0,472.0,-724.0,15636.0,860.0,-359.0,-28.0,-1997.0,-4302.0,-12065.0,32768.0,5521152.0,2278.0,2822.0,0.0
8554474000,0.010266863228834468,97400.73260073259,2336.0,2049.0,2069.0,2855.0,492.0,-732.0,15548.0,877.0,-350.0,-35.0,-1999.0,-4298.0,-12058.0,32768.0,5521152.0,2275.0,2822.0,0.0
8554730000,0.010266863228834468,97400.73260073259,2333.0,2048.0,2070.0,2858.0,504.0,-708.0,15564.0,877.0,-369.0,-23.0,-1999.0,-4298.0,-12058.0,32768.0,5520896.0,2275.0,2822.0,0.0
8554986000,0.010266863228834468,97400.73260073259,2342.0,2049.0,2068.0,2856.0,524.0,-748.0,15612.0,865.0,-331.0,-32.0,-2001.0,-4296.0,-12066.0,32768.0,5520896.0,2281.0,2823.0,0.0
8555242000,0.010266863228834468,97400.73260073259,2333.0,2047.0,2069.0,2855.0,524.0,-724.0,15612.0,884.0,-360.0,-38.0,-1996.0,-4296.0,-12068.0,32768.0,5520896.0,2276.0,2822.0,0.0
8555498000,0.010266863228834468,97400.73260073259,2311.0,2048.0,2070.0,2858.0,544.0,-720.0,15572.0,868.0,-358.0,-38.0,-2011.0,-4293.0,-12062.0,32768.0,5520896.0,2488.0,2806.0,0.0
8555754000,0.010266863228834468,97400.73260073259,2297.0,2047.0,2071.0,2857.0,496.0,-700.0,15564.0,857.0,-346.0,-25.0,-1989.0,-4296.0,-12066.0,32768.0,5520896.0,2371.0,2822.0,0.0
8556010000,0.010266863228834468,97400.73260073259,2190.0,2048.0,2069.0,2856.0,520.0,-700.0,15540.0,866.0,-363.0,-31.0,-1989.0,-4296.0,-12066.0,32768.0,5520896.0,2324.0,2823.0,0.0
8556266000,0.010266863228834468,97400.73260073259,2290.0,2049.0,2067.0,2853.0,484.0,-660.0,15612.0,878.0,-349.0,-17.0,-1994.0,-4299.0,-12065.0,32768.0,5520896.0,2297.0,2822.0,0.0
8556522000,0.010266863228834468,97400.73260073259,2310.0,2047.0,2068.0,2855.0,476.0,-728.0,15592.0,879.0,-350.0,-21.0,-1992.0,-4294.0,-12069.0,32768.0,5520896.0,2498.0,2806.0,0.0
8556778000,0.010266863228834468,97400.73260073259,2310.0,2047.0,2071.0,2858.0,492.0,-684.0,15624.0,870.0,-356.0,-18.0,-1995.0,-4296.0,-12059.0,32768.0,5520384.0,2382.0,2823.0,0.0
8557034000,0.010266863228834468,97400.73260073259,2201.0,2047.0,2070.0,2856.0,484.0,-676.0,15592.0,879.0,-340.0,-23.0,-1995.0,-4296.0,-12059.0,32768.0,5520384.0,2323.0,2822.0,0.0
8557290000,0.010266863228834468,97400.73260073259,2291.0,2050.0,2069.0,2856.0,504.0,-720.0,15640.0,870.0,-341.0,-23.0,-2001.0,-4297.0,-12067.0,32768.0,5521152.0,2296.0,2822.0,0.0
8557546000,0.010266863228834468,97400.73260073259,2318.0,2048.0,2069.0,2856.0,512.0,-696.0,15600.0,889.0,-342.0,-38.0,-2002.0,-4290.0,-12069.0,32768.0,5521152.0,2284.0,2822.0,0.0
8557802000,0.010266863228834468,97400.73260073259,2327.0,2048.0,2069.0,2855.0,504.0,-716.0,15600.0,872.0,-357.0,-38.0,-2002.0,-4299.0,-12066.0,32768.0,5521408.0,2278.0,2822.0,0.0
8558058000,0.010266863228834468,97400.73260073259,2323.0,2049.0,2068.0,2854.0,536.0,-696.0,15572.0,859.0,-359.0,-31.0,-2002.0,-4294.0,-12063.0,32768.0,5521408.0,2276.0,2822.0,0.0
8558314000,0.010266863228834468,97400.73260073259,2322.0,2048.0,2070.0,2855.0,508.0,-748.0,15604.0,877.0,-339.0,-25.0,-2002.0,-4294.0,-12063.0,32768.0,5521152.0,2274.0,2822.0,0.0
8558570000,0.010266863228834468,97400.73260073259,2311.0,2048.0,2071.0,2855.0,508.0,-700.0,15592.0,877.0,-339.0,-25.0,-1998.0,-4294.0,-12064.0,32768.0,5521152.0,2487.0,2806.0,0.0
8558826000,0.010266863228834468,97400.73260073259,2304.0,2048.0,2069.0,2854.0,520.0,-752.0,15608.0,871.0,-350.0,-10.0,-2003.0,-4296.0,-12069.0,32768.0,5521152.0,2377.0,2823.0,0.0
8559082000,0.010266863228834468,97400.73260073259,2207.0,2048.0,2068.0,2856.0,512.0,-672.0,15584.0,875.0,-353.0,-34.0,-1997.0,-4295.0,-12062.0,32768.0,5521152.0,2327.0,2823.0,0.0
8559338000,0.010266863228834468,97400.73260073259,2296.0,2047.0,2069.0,2856.0,520.0,-760.0,15568.0,867.0,-346.0,-36.0,-1995.0,-4296.0,-12069.0,32768.0,5521408.0,2298.0,2822.0,0.0
8559594000,0.010266863228834468,97400.73260073259,2323.0,2048.0,2070.0,2855.0,476.0,-680.0,15588.0,873.0,-344.0,-40.0,-1995.0,-4296.0,-12069.0,32768.0,5521408.0,2504.0,2806.0,0.0
8559850000,0.010266863228834468,97400.73260073259,2326.0,2048.0,2070.0,2853.0,492.0,-712.0,15584.0,869.0,-345.0,-26.0,-2004.0,-4299.0,-12069.0,32768.0,5520384.0,2385.0,2823.0,0.0
8560106000,0.010266863228834468,97400.73260073259,2225.0,2048.0,2069.0,2855.0,504.0,-736.0,15584.0,885.0,-354.0,-28.0,-1996.0,-4294.0,-12057.0,32768.0,5520384.0,2331.0,2823.0,0.0
8560362000,0.010266863228834468,97400.73260073259,2310.0,2047.0,2068.0,2855.0,472.0,-680.0,15588.0,865.0,-378.0,-43.0,-1993.0,-4292.0,-12065.0,32768.0,5521152.0,2300.0,2822.0,0.0
8560618000,0.010266863228834468,97400.73260073259,2319.0,2049.0,2069.0,2855.0,496.0,-724.0,15576.0,872.0,-362.0,-38.0,-1993.0,-4292.0,-12065.0,32768.0,5521152.0,2498.0,2805.0,0.0
8560874000,0.010266863228834468,97400.73260073259,2318.0,2048.0,2068.0,2857.0,440.0,-772.0,15600.0,877.0,-351.0,-46.0,-1991.0,-4296.0,-12071.0,32768.0,5521408.0,2382.0,2823.0,0.0
8561130000,0.010266863228834468,97400.73260073259,2217.0,2050.0,2070.0,2856.0,500.0,-724.0,15608.0,888.0,-354.0,-29.0,-1989.0,-4298.0,-12070.0,32768.0,5521408.0,2330.0,2823.0,0.0
8561386000,0.010266863228834468,97400.73260073259,2303.0,2049.0,2068.0,2857.0,512.0,-756.0,15568.0,860.0,-330.0,-22.0,-1988.0,-4297.0,-12065.0,32768.0,5521408.0,2298.0,2821.0,0.0
8561642000,0.010266863228834468,97400.73260073259,2330.0,2049.0,2068.0,2855.0,496.0,-704.0,15632.0,882.0,-352.0,-28.0,-2000.0,-4294.0,-12065.0,32768.0,5521408.0,2283.0,2821.0,0.0
8561898000,0.010266863228834468,97400.73260073259,2330.0,2048.0,2070.0,2856.0,464.0,-696.0,15564.0,861.0,-348.0,-28.0,-2000.0,-4294.0,-12065.0,32768.0,5521664.0,2278.0,2822.0,0.0
8562154000,0.010266863228834468,97400.73260073259,2341.0,2046.0,2070.0,2857.0,476.0,-728.0,15604.0,868.0,-334.0,-26.0,-1999.0,-4296.0,-12067.0,32768.0,5521664.0,2282.0,2823.0,0.0
8562410000,0.010266863228834468,97400.73260073259,2338.0,2048.0,2066.0,2856.0,480.0,-732.0,15596.0,871.0,-332.0,-23.0,-1998.0,-4296.0,-12063.0,32768.0,5521664.0,2277.0,2822.0,0.0
8562666000,0.010266863228834468,97400.73260073259,2318.0,2049.0,2069.0,2855.0,508.0,-712.0,15612.0,873.0,-356.0,-26.0,-2005.0,-4297.0,-12063.0,32768.0,5521664.0,2489.0,2806.0,0.0
8562922000,0.010266863228834468,97400.73260073259,2295.0,2048.0,2068.0,2856.0,476.0,-740.0,15628.0,870.0,-337.0,-26.0,-2000.0,-4298.0,-12066.0,32768.0,5521920.0,2370.0,2821.0,0.0
8563178000,0.010266863228834468,97400.73260073259,2189.0,2047.0,2068.0,2855.0,492.0,-700.0,15604.0,882.0,-325.0,-14.0,-2000.0,-4298.0,-12066.0,32768.0,5521920.0,2324.0,2823.0,0.0
8563434000,0.010266863228834468,97400.73260073259,2284.0,2048.0,2068.0,2857.0,468.0,-700.0,15580.0,885.0,-360.0,-27.0,-2000.0,-4298.0,-12071.0,32768.0,5521408.0,2296.0,2822.0,0.0
8563690000,0.010266863228834468,97400.73260073259,2308.0,2048.0,2069.0,2855.0,516.0,-696.0,15584.0,886.0,-356.0,-11.0,-2002.0,-4294.0,-12067.0,32768.0,5521408.0,2498.0,2806.0,0.0
8563946000,0.010266863228834468,97400.73260073259,2301.0,2048.0,2069.0,2856.0,492.0,-716.0,15580.0,884.0,-341.0,-30.0,-1997.0,-4291.0,-12060.0,32768.0,5521408.0,2375.0,2822.0,0.0
8564202000,0.010266863228834468,97400.73260073259,2184.0,2048.0,2070.0,2856.0,484.0,-728.0,15604.0,857.0,-350.0,-24.0,-1995.0,-4294.0,-12069.0,32768.0,5521408.0,2320.0,2822.0,0.0
8564458000,0.010266863228834468,97400.73260073259,2285.0,2048.0,2070.0,2854.0,500.0,-712.0,15608.0,893.0,-340.0,-28.0,-1995.0,-4294.0,-12069.0,32768.0,5520896.0,2295.0,2822.0,0.0
8564714000,0.010266863228834468,97400.73260073259,2307.0,2050.0,2066.0,2854.0,508.0,-696.0,15620.0,875.0,-361.0,-21.0,-1990.0,-4292.0,-12065.0,32768.0,5520896.0,2497.0,2806.0,0.0
8564970000,0.010266863228834468,97400.73260073259,2303.0,2048.0,2067.0,2854.0,464.0,-708.0,15600.0,870.0,-331.0,-34.0,-1995.0,-4296.0,-12056.0,32768.0,5521152.0,2375.0,2822.0,0.0
8565226000,0.010266863228834468,97400.73260073259,2188.0,2048.0,2069.0,2856.0,456.0,-676.0,15580.0,878.0,-353.0,-10.0,-1995.0,-4294.0,-12066.0,32768.0,5521152.0,2319.0,2822.0,0.0
8565482000,0.010266863228834468,97400.73260073259,2281.0,2048.0,2070.0,2857.0,488.0,-752.0,15572.0,863.0,-340.0,-45.0,-1995.0,-4294.0,-12066.0,32768.0,5521920.0,2293.0,2821.0,0.0
8565738000,0.010266863228834468,97400.73260073259,2301.0,2049.0,2069.0,2857.0,476.0,-676.0,15596.0,856.0,-337.0,-28.0,-2004.0,-4294.0,-12070.0,32768.0,5521920.0,2496.0,2806.0,0.0
8565994000,0.010266863228834468,97400.73260073259,2305.0,2047.0,2070.0,2856.0,508.0,-716.0,15588.0,874.0,-356.0,-27.0,-1993.0,-4297.0,-12068.0,32768.0,5521152.0,2381.0,2823.0,0.0
8566250000,0.010266863228834468,97400.73260073259,2210.0,2047.0,2070.0,2855.0,500.0,-736.0,15568.0,869.0,-353.0,-12.0,-2000.0,-4299.0,-12067.0,32768.0,5521152.0,2330.0,2823.0,0.0
8566506000,0.010266863228834468,97400.73260073259,2299.0,2048.0,2069.0,2857.0,520.0,-696.0,15608.0,861.0,-362.0,-24.0,-2002.0,-4298.0,-12065.0,32768.0,5521152.0,2298.0,2821.0,0.0
8566762000,0.010266863228834468,97400.73260073259,2326.0,2049.0,2069.0,2855.0,512.0,-728.0,15576.0,865.0,-341.0,-27.0,-2002.0,-4298.0,-12065.0,32768.0,5521152.0,2283.0,2821.0,0.0
8567018000,0.010266863228834468,97400.73260073259,2345.0,2048.0,2070.0,2856.0,508.0,-720.0,15560.0,876.0,-340.0,-28.0,-1998.0,-4297.0,-12066.0,32768.0,5521408.0,2285.0,2823.0,0.0
8567274000,0.010266863228834468,97400.73260073259,2352.0,2050.0,2069.0,2856.0,472.0,-700.0,15612.0,872.0,-336.0,-30.0,-2003.0,-4298.0,-12067.0,32768.0,5521408.0,2285.0,2823.0,0.0
8567530000,0.010266863228834468,97400.73260073259,2359.0,2049.0,2069.0,2855.0,500.0,-712.0,15636.0,883.0,-339.0,-50.0,-2001.0,-4298.0,-12065.0,32768.0,5521408.0,2286.0,2823.0,0.0
8567786000,0.010266863228834468,97400.73260073259,2336.0,2049.0,2070.0,2856.0,540.0,-724.0,15624.0,857.0,-330.0,-23.0,-2003.0,-4292.0,-12067.0,32768.0,5521408.0,2491.0,2805.0,0.0
8568042000,0.010266863228834468,97400.73260073259,2306.0,2049.0,2071.0,2856.0,480.0,-708.0,15568.0,868.0,-353.0,-26.0,-2003.0,-4292.0,-12067.0,32768.0,5520896.0,2372.0,2822.0,0.0
8568298000,0.010266863228834468,97400.73260073259,2188.0,2047.0,2067.0,2854.0,504.0,-728.0,15580.0,854.0,-347.0,-16.0,-2000.0,-4295.0,-12066.0,32768.0,5520896.0,2320.0,2824.0,0.0
8568554000,0.010266863228834468,97400.73260073259,2286.0,2049.0,2068.0,2856.0,520.0,-696.0,15616.0,857.0,-349.0,-32.0,-1997.0,-4297.0,-12066.0,32768.0,5521408.0,2295.0,2822.0,0.0
8568810000,0.010266863228834468,97400.73260073259,2321.0,2047.0,2069.0,2856.0,492.0,-756.0,15596.0,874.0,-347.0,-25.0,-1998.0,-4297.0,-12063.0,32768.0,5521408.0,2283.0,2822.0,0.0
8569066000,0.010266863228834468,97400.73260073259,2320.0,2048.0,2068.0,2855.0,504.0,-708.0,15584.0,870.0,-370.0,-30.0,-1998.0,-4297.0,-12063.0,32768.0,5521152.0,2276.0,2821.0,0.0
8569322000,0.010266863228834468,97400.73260073259,2334.0,2047.0,2068.0,2856.0,512.0,-708.0,15600.0,875.0,-353.0,-17.0,-1996.0,-4288.0,-12061.0,32768.0,5521152.0,2282.0,2823.0,0.0
8569578000,0.010266863228834468,97400.73260073259,2335.0,2048.0,2069.0,2856.0,508.0,-712.0,15604.0,858.0,-346.0,-19.0,-1995.0,-4294.0,-12063.0,32768.0,5521664.0,2277.0,2822.0,0.0
8569834000,0.010266863228834468,97400.73260073259,2333.0,2048.0,2069.0,2856.0,500.0,-720.0,15588.0,878.0,-344.0,-34.0,-1992.0,-4292.0,-12066.0,32768.0,5521664.0,2275.0,2822.0,0.0
8570090000,0.010266863228834468,97400.73260073259,2328.0,2048.0,2068.0,2856.0,508.0,-736.0,15644.0,883.0,-347.0,-40.0,-1994.0,-4298.0,-12063.0,32768.0,5521152.0,2274.0,2822.0,0.0
8570346000,0.010266863228834468,97400.73260073259,2331.0,2047.0,2068.0,2857.0,488.0,-676.0,15620.0,877.0,-358.0,-30.0,-1994.0,-4298.0,-12063.0,32768.0,5521152.0,2280.0,2823.0,0.0
8570602000,0.010266863228834468,97400.73260073259,2332.0,2049.0,2067.0,2857.0,472.0,-700.0,15552.0,889.0,-336.0,-14.0,-1997.0,-4293.0,-12063.0,32768.0,5521408.0,2277.0,2822.0,0.0
8570858000,0.010266863228834468,97400.73260073259,2333.0,2048.0,2069.0,2855.0,484.0,-664.0,15640.0,873.0,-333.0,-24.0,-1990.0,-4300.0,-12061.0,32768.0,5521408.0,2275.0,2822.0,0.0
8571114000,0.010266863228834468,97400.73260073259,2339.0,2047.0,2069.0,2858.0,484.0,-720.0,15608.0,879.0,-344.0,-38.0,-1993.0,-4299.0,-12065.0,32768.0,5521664.0,2281.0,2823.0,0.0
8571370000,0.010266863228834468,97400.73260073259,2348.0,2047.0,2069.0,2855.0,492.0,-740.0,15540.0,888.0,-357.0,-38.0,-1998.0,-4299.0,-12063.0,32768.0,5521664.0,2283.0,2823.0,0.0
8571626000,0.010266863228834468,97400.73260073259,2342.0,2048.0,2069.0,2857.0,512.0,-704.0,15604.0,886.0,-329.0,-20.0,-1998.0,-4299.0,-12063.0,32768.0,5521664.0,2277.0,2821.0,0.0
8571882000,0.010266863228834468,97400.73260073259,2317.0,2048.0,2068.0,2857.0,512.0,-728.0,15584.0,878.0,-355.0,-2.0,-1998.0,-4290.0,-12059.0,32768.0,5521664.0,2488.0,2806.0,0.0
8572138000,0.010266863228834468,97400.73260073259,2302.0,2048.0,2067.0,2858.0,500.0,-720.0,15660.0,860.0,-351.0,-22.0,-1996.0,-4291.0,-12065.0,32768.0,5521664.0,2371.0,2822.0,0.0
8572394000,0.010266863228834468,97400.73260073259,2191.0,2048.0,2069.0,2856.0,520.0,-724.0,15628.0,878.0,-347.0,-24.0,-2004.0,-4290.0,-12064.0,32768.0,5521664.0,2324.0,2823.0,0.0
8572650000,0.010266863228834468,97400.73260073259,2264.0,2048.0,2067.0,2856.0,568.0,-740.0,15580.0,889.0,-336.0,-22.0,-1993.0,-4296.0,-12065.0,32768.0,5521408.0,2502.0,2801.0,0.0
8572906000,0.010266863228834468,97400.73260073259,2281.0,2047.0,2068.0,2855.0,512.0,-668.0,15564.0,872.0,-345.0,-35.0,-1993.0,-4296.0,-12065.0,32768.0,5521408.0,2377.0,2822.0,0.0
8573162000,0.010266863228834468,97400.73260073259,2188.0,2048.0,2068.0,2858.0,508.0,-736.0,15628.0,855.0,-360.0,-26.0,-1995.0,-4292.0,-12066.0,32768.0,5521152.0,2328.0,2823.0,0.0
8573418000,0.010266863228834468,97400.73260073259,2097.0,2048.0,2068.0,2854.0,496.0,-716.0,15660.0,888.0,-350.0,-20.0,-2003.0,-4298.0,-12064.0,32768.0,5521152.0,2305.0,2823.0,0.0
8573674000,0.010266863228834468,97400.73260073259,2224.0,2049.0,2069.0,2855.0,492.0,-744.0,15648.0,860.0,-350.0,-24.0,-1999.0,-4293.0,-12064.0,32768.0,5520896.0,2287.0,2821.0,0.0
8573930000,0.010266863228834468,97400.73260073259,2264.0,2048.0,2067.0,2855.0,492.0,-764.0,15596.0,869.0,-337.0,-33.0,-1999.0,-4293.0,-12064.0,32768.0,5520896.0,2493.0,2806.0,0.0
8574186000,0.010266863228834468,97400.73260073259,2274.0,2049.0,2068.0,2857.0,528.0,-692.0,15572.0,872.0,-360.0,-25.0,-1990.0,-4294.0,-12063.0,32768.0,5521152.0,2373.0,2822.0,0.0
8574442000,0.010266863228834468,97400.73260073259,2183.0,2050.0,2068.0,2857.0,524.0,-680.0,15636.0,874.0,-359.0,-29.0,-1995.0,-4292.0,-12070.0,32768.0,5521152.0,2326.0,2823.0,0.0
8574698000,0.010266863228834468,97400.73260073259,2286.0,2048.0,2068.0,2855.0,512.0,-744.0,15624.0,884.0,-348.0,-28.0,-2007.0,-4295.0,-12063.0,32768.0,5521408.0,2297.0,2822.0,0.0
8574954000,0.010266863228834468,97400.73260073259,2306.0,2047.0,2070.0,2856.0,480.0,-720.0,15592.0,873.0,-355.0,-29.0,-1994.0,-4296.0,-12069.0,32768.0,5521408.0,2497.0,2805.0,0.0
8575210000,0.010266863228834468,97400.73260073259,2300.0,2047.0,2068.0,2858.0,516.0,-688.0,15600.0,872.0,-342.0,-22.0,-1994.0,-4296.0,-12069.0,32768.0,5521408.0,2375.0,2822.0,0.0
8575466000,0.010266863228834468,97400.73260073259,2200.0,2048.0,2069.0,2856.0,480.0,-728.0,15628.0,872.0,-342.0,-22.0,-1993.0,-4292.0,-12065.0,32768.0,5521408.0,2326.0,2823.0,0.0
8575722000,0.010266863228834468,97400.73260073259,2293.0,2047.0,2068.0,2859.0,532.0,-744.0,15596.0,865.0,-352.0,-41.0,-1989.0,-4292.0,-12067.0,32768.0,5521408.0,2297.0,2822.0,0.0
8575978000,0.010266863228834468,97400.73260073259,2313.0,2049.0,2069.0,2855.0,540.0,-728.0,15608.0,898.0,-362.0,-44.0,-1992.0,-4299.0,-12062.0,32768.0,5521408.0,2498.0,2806.0,0.0
8576234000,0.010266863228834468,97400.73260073259,2303.0,2049.0,2070.0,2857.0,508.0,-712.0,15564.0,881.0,-333.0,-28.0,-1998.0,-4294.0,-12063.0,32768.0,5521408.0,2375.0,2822.0,0.0
8576490000,0.010266863228834468,97400.73260073259,2205.0,2049.0,2069.0,2856.0,536.0,-720.0,15612.0,871.0,-360.0,-25.0,-1998.0,-4294.0,-12063.0,32768.0,5521408.0,2327.0,2823.0,0.0
8576746000,0.010266863228834468,97400.73260073259,2294.0,2048.0,2070.0,2855.0,500.0,-720.0,15604.0,879.0,-349.0,-17.0,-1998.0,-4294.0,-12065.0,32768.0,5521408.0,2296.0,2821.0,0.0
8577002000,0.010266863228834468,97400.73260073259,2312.0,2048.0,2068.0,2855.0,520.0,-692.0,15608.0,879.0,-357.0,-31.0,-2001.0,-4299.0,-12066.0,32768.0,5521408.0,2498.0,2806.0,0.0
8577258000,0.010267069159178435,97398.77899877899,2304.0,2048.0,2070.0,2855.0,508.0,-720.0,15632.0,863.0,-346.0,-25.0,-2005.0,-4292.0,-12068.0,32768.0,5522432.0,2375.0,2822.0,0.0
8577514000,0.010266863228834468,97400.73260073259,2185.0,2047.0,2070.0,2855.0,528.0,-708.0,15588.0,875.0,-350.0,-32.0,-2005.0,-4292.0,-12068.0,32768.0,5522432.0,2320.0,2822.0,0.0
8577770000,0.010266863228834468,97400.73260073259,2285.0,2048.0,2069.0,2854.0,492.0,-708.0,15608.0,874.0,-332.0,-11.0,-1998.0,-4296.0,-12063.0,32768.0,5520896.0,2295.0,2822.0,0.0
8578026000,0.010266863228834468,97400.73260073259,2321.0,2049.0,2069.0,2855.0,532.0,-704.0,15580.0,855.0,-362.0,-42.0,-2002.0,-4291.0,-12065.0,32768.0,5520896.0,2283.0,2822.0,0.0
8578282000,0.010266863228834468,97400.73260073259,2327.0,2047.0,2070.0,2855.0,492.0,-760.0,15632.0,869.0,-353.0,-18.0,-1995.0,-4291.0,-12066.0,32768.0,5521152.0,2278.0,2822.0,0.0
8578538000,0.010266863228834468,97400.73260073259,2314.0,2047.0,2070.0,2857.0,548.0,-732.0,15612.0,889.0,-339.0,-35.0,-2025.0,-4291.0,-12063.0,32768.0,5521152.0,2489.0,2806.0,0.0
8578794000,0.010266863228834468,97400.73260073259,2292.0,2048.0,2071.0,2856.0,492.0,-752.0,15572.0,859.0,-337.0,-26.0,-2025.0,-4291.0,-12063.0,32768.0,5521152.0,2369.0,2821.0,0.0
8579050000,0.010266863228834468,97400.73260073259,2372.0,2046.0,2071.0,2853.0,544.0,-680.0,15648.0,862.0,-356.0,-26.0,-2000.0,-4297.0,-12063.0,32768.0,5521152.0,2531.0,2806.0,0.0
8579306000,0.010266863228834468,97400.73260073259,2373.0,2049.0,2068.0,2856.0,512.0,-724.0,15640.0,872.0,-354.0,-22.0,-1990.0,-4290.0,-12060.0,32768.0,5521664.0,2397.0,2823.0,0.0
8579562000,0.010266863228834468,97400.73260073259,2418.0,2048.0,2067.0,2856.0,472.0,-724.0,15624.0,891.0,-346.0,-38.0,-1989.0,-4293.0,-12064.0,32768.0,5521664.0,2536.0,2802.0,0.0
8579818000,0.010266863228834468,97400.73260073259,2389.0,2048.0,2067.0,2857.0,520.0,-728.0,15572.0,877.0,-343.0,-15.0,-1987.0,-4296.0,-12063.0,32768.0,5520896.0,2393.0,2822.0,0.0
8580074000,0.010266863228834468,97400.73260073259,2440.0,2048.0,2069.0,2855.0,540.0,-712.0,15604.0,878.0,-322.0,-26.0,-1987.0,-4296.0,-12063.0,32768.0,5520896.0,2542.0,2806.0,0.0
8580330000,0.010266863228834468,97400.73260073259,2417.0,2048.0,2070.0,2855.0,488.0,-692.0,15636.0,862.0,-349.0,-18.0,-1996.0,-4295.0,-12068.0,32768.0,5521664.0,2402.0,2823.0,0.0
8580586000,0.010266863228834468,97400.73260073259,2292.0,2050.0,2070.0,2855.0,520.0,-716.0,15632.0,856.0,-337.0,-30.0,-2000.0,-4288.0,-12060.0,32768.0,5521664.0,2339.0,2823.0,0.0
8580842000,0.010266863228834468,97400.73260073259,2356.0,2048.0,2067.0,2855.0,512.0,-708.0,15568.0,876.0,-353.0,-18.0,-2003.0,-4294.0,-12064.0,32768.0,5521408.0,2303.0,2822.0,0.0
8581098000,0.010266863228834468,97400.73260073259,2358.0,2048.0,2068.0,2856.0,492.0,-700.0,15624.0,884.0,-332.0,-13.0,-2009.0,-4290.0,-12065.0,32768.0,5521408.0,2286.0,2821.0,0.0
8581354000,0.010266863228834468,97400.73260073259,2355.0,2048.0,2068.0,2856.0,496.0,-708.0,15632.0,870.0,-345.0,-35.0,-2009.0,-4290.0,-12065.0,32768.0,5520896.0,2279.0,2822.0,0.0
8581610000,0.010266863228834468,97400.73260073259,2358.0,2048.0,2067.0,2852.0,508.0,-732.0,15600.0,875.0,-356.0,-42.0,-2002.0,-4290.0,-12066.0,32768.0,5520896.0,2283.0,2823.0,0.0
8581866000,0.010266863228834468,97400.73260073259,2348.0,2049.0,2067.0,2857.0,536.0,-716.0,15628.0,858.0,-345.0,-28.0,-2000.0,-4299.0,-12067.0,32768.0,5521408.0,2278.0,2822.0,0.0
8582122000,0.010266863228834468,97400.73260073259,2336.0,2049.0,2067.0,2855.0,516.0,-760.0,15612.0,879.0,-327.0,-34.0,-1999.0,-4301.0,-12067.0,32768.0,5521408.0,2276.0,2822.0,0.0
8582378000,0.010266863228834468,97400.73260073259,2326.0,2048.0,2068.0,2855.0,524.0,-724.0,15604.0,875.0,-333.0,-35.0,-1999.0,-4301.0,-12067.0,32768.0,5520896.0,2274.0,2822.0,0.0
8582634000,0.010266863228834468,97400.73260073259,2311.0,2048.0,2068.0,2856.0,540.0,-716.0,15676.0,881.0,-344.0,-8.0,-2006.0,-4304.0,-12065.0,32768.0,5520896.0,2488.0,2808.0,0.0
8582890000,0.010267069159178435,97398.77899877899,2296.0,2048.0,2068.0,2855.0,536.0,-680.0,15604.0,873.0,-362.0,-31.0,-2004.0,-4292.0,-12064.0,32768.0,5521408.0,2371.0,2822.0,0.0
8583146000,0.010266863228834468,97400.73260073259,2382.0,2047.0,2069.0,2857.0,540.0,-692.0,15596.0,881.0,-350.0,-31.0,-1995.0,-4293.0,-12063.0,32768.0,5521408.0,2538.0,2807.0,0.0
8583402000,0.010266863228834468,97400.73260073259,2372.0,2049.0,2069.0,2857.0,556.0,-684.0,15620.0,864.0,-354.0,-26.0,-1990.0,-4288.0,-12064.0,32768.0,5521152.0,2394.0,2822.0,0.0
8583658000,0.010266863228834468,97400.73260073259,2251.0,2049.0,2069.0,2856.0,552.0,-736.0,15588.0,883.0,-337.0,-25.0,-1990.0,-4288.0,-12064.0,32768.0,5521152.0,2334.0,2823.0,0.0
8583914000,0.010266863228834468,97400.73260073259,2136.0,2048.0,2069.0,2857.0,544.0,-724.0,15612.0,873.0,-350.0,-40.0,-1995.0,-4289.0,-12062.0,32768.0,5521664.0,2308.0,2823.0,0.0
8584170000,0.010266863228834468,97400.73260073259,2248.0,2047.0,2068.0,2856.0,516.0,-704.0,15628.0,874.0,-355.0,-18.0,-1990.0,-4293.0,-12061.0,32768.0,5521664.0,2509.0,2807.0,0.0
8584426000,0.010266863228834468,97400.73260073259,2272.0,2048.0,2068.0,2856.0,512.0,-700.0,15620.0,882.0,-352.0,-30.0,-1992.0,-4284.0,-12066.0,32768.0,5521408.0,2380.0,2822.0,0.0
8584682000,0.010266863228834468,97400.73260073259,2175.0,2050.0,2068.0,2855.0,500.0,-708.0,15596.0,885.0,-355.0,-17.0,-1993.0,-4292.0,-12068.0,32768.0,5521408.0,2322.0,2822.0,0.0
8584938000,0.010266863228834468,97400.73260073259,2278.0,2049.0,2069.0,2855.0,528.0,-748.0,15632.0,873.0,-346.0,-24.0,-1993.0,-4292.0,-12068.0,32768.0,5521664.0,2295.0,2821.0,0.0
8585194000,0.010266863228834468,97400.73260073259,2318.0,2047.0,2069.0,2855.0,492.0,-732.0,15644.0,892.0,-353.0,-29.0,-1997.0,-4296.0,-12062.0,32768.0,5521664.0,2503.0,2807.0,0.0
8585450000,0.010266863228834468,97400.73260073259,2309.0,2048.0,2069.0,2856.0,520.0,-716.0,15572.0,882.0,-364.0,-30.0,-1993.0,-4294.0,-12065.0,32768.0,5522176.0,2378.0,2822.0,0.0
8585706000,0.010266863228834468,97400.73260073259,2204.0,2049.0,2071.0,2855.0,532.0,-688.0,15588.0,863.0,-348.0,-18.0,-2000.0,-4291.0,-12066.0,32768.0,5522176.0,2328.0,2823.0,0.0
8585962000,0.010266863228834468,97400.73260073259,2296.0,2050.0,2069.0,2854.0,560.0,-724.0,15608.0,881.0,-346.0,-18.0,-2000.0,-4291.0,-12066.0,32768.0,5521664.0,2297.0,2821.0,0.0
8586218000,0.010266863228834468,97400.73260073259,2321.0,2048.0,2070.0,2854.0,512.0,-684.0,15588.0,854.0,-343.0,-29.0,-2001.0,-4286.0,-12065.0,32768.0,5521664.0,2284.0,2822.0,0.0
8586474000,0.010266863228834468,97400.73260073259,2342.0,2047.0,2068.0,2854.0,484.0,-728.0,15648.0,855.0,-349.0,-26.0,-2002.0,-4291.0,-12063.0,32768.0,5521152.0,2286.0,2823.0,0.0
8586730000,0.010266863228834468,97400.73260073259,2329.0,2049.0,2070.0,2856.0,520.0,-716.0,15620.0,889.0,-354.0,-20.0,-2001.0,-4298.0,-12067.0,32768.0,5521152.0,2493.0,2808.0,0.0
8586986000,0.010266863228834468,97400.73260073259,2306.0,2046.0,2070.0,2853.0,512.0,-716.0,15668.0,863.0,-344.0,-23.0,-1996.0,-4294.0,-12061.0,32768.0,5521664.0,2373.0,2822.0,0.0
8587242000,0.010266863228834468,97400.73260073259,2380.0,2047.0,2070.0,2857.0,504.0,-736.0,15572.0,882.0,-361.0,-38.0,-1996.0,-4294.0,-12061.0,32768.0,5521664.0,2533.0,2806.0,0.0
8587498000,0.010266863228834468,97400.73260073259,2378.0,2048.0,2068.0,2857.0,544.0,-732.0,15620.0,873.0,-350.0,-11.0,-2001.0,-4296.0,-12062.0,32768.0,5521408.0,2398.0,2823.0,0.0
8587754000,0.010266863228834468,97400.73260073259,2264.0,2047.0,2069.0,2857.0,508.0,-736.0,15624.0,873.0,-355.0,-21.0,-1998.0,-4301.0,-12065.0,32768.0,5521408.0,2337.0,2823.0,0.0
8588010000,0.010266863228834468,97400.73260073259,2146.0,2050.0,2069.0,2856.0,500.0,-716.0,15608.0,850.0,-353.0,-40.0,-1997.0,-4295.0,-12068.0,32768.0,5521152.0,2309.0,2823.0,0.0
8588266000,0.010266863228834468,97400.73260073259,2244.0,2047.0,2072.0,2857.0,532.0,-712.0,15592.0,877.0,-347.0,-55.0,-1989.0,-4296.0,-12067.0,32768.0,5521152.0,2503.0,2806.0,0.0
8588522000,0.010266863228834468,97400.73260073259,2264.0,2048.0,2069.0,2855.0,556.0,-732.0,15580.0,865.0,-354.0,-42.0,-1989.0,-4296.0,-12067.0,32768.0,5521408.0,2376.0,2821.0,0.0
8588778000,0.010266863228834468,97400.73260073259,2184.0,2048.0,2071.0,2854.0,500.0,-720.0,15584.0,877.0,-366.0,-51.0,-1988.0,-4294.0,-12066.0,32768.0,5521408.0,2327.0,2823.0,0.0
8589034000,0.010266863228834468,97400.73260073259,2286.0,2048.0,2069.0,2856.0,540.0,-744.0,15620.0,861.0,-357.0,-18.0,-1992.0,-4288.0,-12065.0,32768.0,5521152.0,2297.0,2821.0,0.0
8589290000,0.010266863228834468,97400.73260073259,2316.0,2048.0,2066.0,2857.0,544.0,-720.0,15624.0,866.0,-355.0,-22.0,-2000.0,-4292.0,-12063.0,32768.0,5521152.0,2284.0,2822.0,0.0
8589546000,0.010266863228834468,97400.73260073259,2321.0,2048.0,2067.0,2858.0,544.0,-704.0,15616.0,877.0,-343.0,-18.0,-1997.0,-4299.0,-12062.0,32768.0,5521920.0,2277.0,2821.0,0.0
8589802000,0.010266863228834468,97400.73260073259,2328.0,2047.0,2068.0,2856.0,520.0,-736.0,15616.0,881.0,-341.0,-44.0,-1997.0,-4299.0,-12062.0,32768.0,5521920.0,2275.0,2822.0,0.0
8590058000,0.010266863228834468,97400.73260073259,2325.0,2048.0,2069.0,2856.0,560.0,-724.0,15620.0,868.0,-350.0,-33.0,-1995.0,-4295.0,-12060.0,32768.0,5520896.0,2274.0,2822.0,0.0
8590314000,0.010266863228834468,97400.73260073259,2322.0,2047.0,2068.0,2856.0,500.0,-724.0,15580.0,853.0,-354.0,-35.0,-2000.0,-4292.0,-12063.0,32768.0,5520896.0,2274.0,2822.0,0.0
8590570000,0.010266863228834468,97400.73260073259,2321.0,2049.0,2069.0,2857.0,552.0,-732.0,15632.0,875.0,-352.0,-41.0,-2001.0,-4290.0,-12066.0,32768.0,5521408.0,2273.0,2822.0,0.0
8590826000,0.010266863228834468,97400.73260073259,2318.0,2048.0,2067.0,2856.0,520.0,-748.0,15628.0,883.0,-362.0,-36.0,-2001.0,-4290.0,-12066.0,32768.0,5521408.0,2273.0,2822.0,0.0
8591082000,0.010266863228834468,97400.73260073259,2315.0,2049.0,2069.0,2853.0,552.0,-756.0,15608.0,891.0,-348.0,-16.0,-1999.0,-4297.0,-12064.0,32768.0,5521408.0,2272.0,2821.0,0.0
8591338000,0.010266863228834468,97400.73260073259,2330.0,2048.0,2068.0,2855.0,540.0,-720.0,15620.0,870.0,-348.0,-39.0,-1998.0,-4295.0,-12067.0,32768.0,5521408.0,2279.0,2823.0,0.0
8591594000,0.010266863228834468,97400.73260073259,2325.0,2049.0,2070.0,2855.0,576.0,-708.0,15624.0,864.0,-355.0,-19.0,-1996.0,-4295.0,-12063.0,32768.0,5521664.0,2276.0,2822.0,0.0
8591850000,0.010266863228834468,97400.73260073259,2329.0,2048.0,2069.0,2855.0,520.0,-720.0,15596.0,874.0,-346.0,-37.0,-1997.0,-4296.0,-12065.0,32768.0,5521664.0,2275.0,2822.0,0.0
8592106000,0.010266863228834468,97400.73260073259,2321.0,2048.0,2069.0,2856.0,552.0,-748.0,15612.0,866.0,-325.0,-18.0,-1997.0,-4296.0,-12065.0,32768.0,5522432.0,2273.0,2821.0,0.0
8592362000,0.010266863228834468,97400.73260073259,2315.0,2049.0,2068.0,2855.0,536.0,-732.0,15600.0,866.0,-325.0,-18.0,-2000.0,-4295.0,-12068.0,32768.0,5522432.0,2267.0,2822.0,0.0
8592618000,0.010267069159178435,97398.77899877899,2324.0,2047.0,2068.0,2856.0,488.0,-752.0,15644.0,878.0,-324.0,-19.0,-1994.0,-4292.0,-12056.0,32915.0,5522432.0,2277.0,2823.0,0.0
8592874000,0.010266863228834468,97400.73260073259,2335.0,2047.0,2070.0,2856.0,532.0,-696.0,15648.0,884.0,-363.0,-21.0,-1993.0,-4293.0,-12061.0,32915.0,5522432.0,2282.0,2823.0,0.0
8593130000,0.010266863228834468,97400.73260073259,2328.0,2047.0,2069.0,2858.0,548.0,-736.0,15584.0,865.0,-355.0,-42.0,-1990.0,-4297.0,-12057.0,32915.0,5521920.0,2276.0,2821.0,0.0
8593386000,0.010266863228834468,97400.73260073259,2329.0,2049.0,2068.0,2856.0,520.0,-724.0,15612.0,884.0,-357.0,-24.0,-1990.0,-4297.0,-12057.0,32915.0,5521920.0,2275.0,2822.0,0.0
8593642000,0.010266863228834468,97400.73260073259,2327.0,2048.0,2069.0,2854.0,512.0,-732.0,15580.0,883.0,-355.0,-16.0,-2013.0,-4292.0,-12060.0,32915.0,5521408.0,2274.0,2822.0,0.0
8593898000,0.010266863228834468,97400.73260073259,2332.0,2048.0,2070.0,2856.0,484.0,-744.0,15632.0,894.0,-352.0,-16.0,-1991.0,-4296.0,-12061.0,32915.0,5521408.0,2280.0,2823.0,0.0
8594154000,0.010266863228834468,97400.73260073259,2331.0,2048.0,2067.0,2856.0,540.0,-732.0,15652.0,853.0,-352.0,-15.0,-1996.0,-4297.0,-12065.0,32915.0,5521664.0,2277.0,2822.0,0.0
8594410000,0.010266863228834468,97400.73260073259,2331.0,2047.0,2069.0,2858.0,508.0,-720.0,15580.0,875.0,-375.0,-19.0,-1993.0,-4298.0,-12064.0,32915.0,5521664.0,2275.0,2822.0,0.0
8594666000,0.010266863228834468,97400.73260073259,2327.0,2048.0,2068.0,2856.0,564.0,-712.0,15604.0,872.0,-358.0,-31.0,-1993.0,-4298.0,-12064.0,32915.0,5521152.0,2274.0,2822.0,0.0
8594922000,0.010266863228834468,97400.73260073259,2332.0,2047.0,2071.0,2856.0,504.0,-760.0,15620.0,879.0,-348.0,-16.0,-1998.0,-4286.0,-12068.0,32915.0,5521152.0,2280.0,2823.0,0.0
8595178000,0.010266863228834468,97400.73260073259,2334.0,2048.0,2068.0,2853.0,528.0,-704.0,15592.0,877.0,-350.0,-35.0,-1997.0,-4298.0,-12061.0,32915.0,5521152.0,2277.0,2822.0,0.0
8595434000,0.010266863228834468,97400.73260073259,2316.0,2048.0,2068.0,2857.0,536.0,-748.0,15560.0,879.0,-353.0,-44.0,-2004.0,-4290.0,-12057.0,32915.0,5521152.0,2489.0,2808.0,0.0
8595690000,0.010266863228834468,97400.73260073259,2299.0,2047.0,2070.0,2855.0,504.0,-700.0,15504.0,872.0,-349.0,-32.0,-2004.0,-4290.0,-12057.0,32915.0,5521408.0,2371.0,2822.0,0.0
8595946000,0.010266863228834468,97400.73260073259,2392.0,2048.0,2069.0,2854.0,532.0,-736.0,15564.0,875.0,-338.0,-40.0,-1995.0,-4294.0,-12063.0,32915.0,5521408.0,2541.0,2812.0,0.0
8596202000,0.010266863228834468,97400.73260073259,2389.0,2049.0,2070.0,2855.0,500.0,-716.0,15656.0,876.0,-345.0,-27.0,-2003.0,-4290.0,-12063.0,32915.0,5521408.0,2402.0,2823.0,0.0
8596458000,0.010266863228834468,97400.73260073259,2460.0,2047.0,2069.0,2854.0,528.0,-740.0,15592.0,874.0,-336.0,-19.0,-2007.0,-4293.0,-12065.0,32915.0,5521408.0,2553.0,2809.0,0.0
8596714000,0.010266863228834468,97400.73260073259,2425.0,2049.0,2069.0,2857.0,492.0,-708.0,15596.0,871.0,-348.0,-60.0,-1999.0,-4294.0,-12064.0,32915.0,5521408.0,2401.0,2822.0,0.0
8596970000,0.010266863228834468,97400.73260073259,2290.0,2047.0,2071.0,2856.0,508.0,-728.0,15552.0,882.0,-350.0,-11.0,-1999.0,-4294.0,-12064.0,32915.0,5521408.0,2338.0,2823.0,0.0
8597226000,0.010266863228834468,97400.73260073259,2357.0,2049.0,2067.0,2854.0,496.0,-724.0,15612.0,875.0,-322.0,-20.0,-1994.0,-4295.0,-12066.0,32915.0,5521152.0,2303.0,2822.0,0.0
8597482000,0.010266863228834468,97400.73260073259,2372.0,2049.0,2067.0,2856.0,488.0,-724.0,15620.0,873.0,-325.0,-29.0,-1997.0,-4290.0,-12064.0,32915.0,5521152.0,2294.0,2823.0,0.0
8597738000,0.010266863228834468,97400.73260073259,2368.0,2048.0,2069.0,2855.0,472.0,-684.0,15640.0,863.0,-343.0,-16.0,-2010.0,-4296.0,-12062.0,32915.0,5521152.0,2283.0,2822.0,0.0
8597994000,0.010266863228834468,97400.73260073259,2351.0,2047.0,2068.0,2855.0,480.0,-712.0,15596.0,875.0,-352.0,-30.0,-1989.0,-4291.0,-12064.0,32915.0,5521152.0,2278.0,2822.0,0.0
8598250000,0.010266863228834468,97400.73260073259,2338.0,2047.0,2069.0,2857.0,500.0,-696.0,15572.0,875.0,-355.0,-38.0,-1989.0,-4291.0,-12064.0,32915.0,5521408.0,2274.0,2821.0,0.0
8598506000,0.010266863228834468,97400.73260073259,2339.0,2047.0,2068.0,2855.0,472.0,-712.0,15616.0,871.0,-362.0,-24.0,-1991.0,-4292.0,-12063.0,32915.0,5521408.0,2280.0,2823.0,0.0
8598762000,0.010266863228834468,97400.73260073259,2336.0,2048.0,2069.0,2855.0,476.0,-712.0,15588.0,859.0,-346.0,-14.0,-1985.0,-4296.0,-12060.0,32915.0,5521664.0,2277.0,2822.0,0.0
8599018000,0.010267069159178435,97398.77899877899,2313.0,2048.0,2069.0,2857.0,512.0,-708.0,15576.0,878.0,-342.0,-43.0,-1992.0,-4298.0,-12062.0,32915.0,5521664.0,2486.0,2803.0,0.0
8599274000,0.010266863228834468,97400.73260073259,2290.0,2049.0,2069.0,2856.0,500.0,-700.0,15556.0,882.0,-338.0,-17.0,-1992.0,-4298.0,-12062.0,32915.0,5521664.0,2369.0,2821.0,0.0
8599530000,0.010266863228834468,97400.73260073259,2381.0,2047.0,2070.0,2856.0,496.0,-712.0,15592.0,856.0,-352.0,-21.0,-2003.0,-4294.0,-12062.0,32915.0,5521664.0,2538.0,2809.0,0.0
8599786000,0.010266863228834468,97400.73260073259,2383.0,2048.0,2071.0,2854.0,468.0,-712.0,15624.0,871.0,-343.0,-18.0,-2002.0,-4291.0,-12064.0,32915.0,5520640.0,2401.0,2823.0,0.0
8600042000,0.010266863228834468,97400.73260073259,2266.0,2049.0,2068.0,2852.0,512.0,-700.0,15636.0,876.0,-342.0,-25.0,-1994.0,-4291.0,-12069.0,32915.0,5520640.0,2338.0,2823.0,0.0
8600298000,0.010266863228834468,97400.73260073259,2343.0,2048.0,2069.0,2856.0,476.0,-692.0,15592.0,871.0,-337.0,-8.0,-2006.0,-4295.0,-12069.0,32915.0,5521408.0,2303.0,2822.0,0.0
8600554000,0.010266863228834468,97400.73260073259,2353.0,2048.0,2070.0,2858.0,508.0,-704.0,15612.0,858.0,-356.0,-27.0,-2006.0,-4295.0,-12069.0,32915.0,5521408.0,2508.0,2809.0,0.0
8600810000,0.010266863228834468,97400.73260073259,2330.0,2047.0,2069.0,2855.0,476.0,-736.0,15616.0,882.0,-350.0,-23.0,-1999.0,-4299.0,-12063.0,32915.0,5521664.0,2380.0,2822.0,0.0
8601066000,0.010266863228834468,97400.73260073259,2217.0,2048.0,2068.0,2856.0,516.0,-712.0,15612.0,870.0,-353.0,-38.0,-2003.0,-4296.0,-12062.0,32915.0,5521664.0,2328.0,2823.0,0.0
8601322000,0.010266863228834468,97400.73260073259,2308.0,2048.0,2069.0,2856.0,504.0,-716.0,15548.0,870.0,-344.0,-12.0,-1997.0,-4295.0,-12056.0,32915.0,5521664.0,2299.0,2822.0,0.0
8601578000,0.010266863228834468,97400.73260073259,2333.0,2049.0,2069.0,2856.0,516.0,-712.0,15592.0,881.0,-346.0,-32.0,-2000.0,-4294.0,-12059.0,32915.0,5521664.0,2285.0,2822.0,0.0
8601834000,0.010266863228834468,97400.73260073259,2339.0,2050.0,2069.0,2855.0,496.0,-700.0,15600.0,878.0,-346.0,-28.0,-2000.0,-4294.0,-12059.0,32915.0,5521152.0,2279.0,2822.0,0.0
8602090000,0.010266863228834468,97400.73260073259,2351.0,2048.0,2068.0,2856.0,488.0,-708.0,15624.0,867.0,-349.0,-35.0,-1993.0,-4296.0,-12061.0,32915.0,5521152.0,2505.0,2814.0,0.0
8602346000,0.010266863228834468,97400.73260073259,2329.0,2048.0,2068.0,2856.0,520.0,-720.0,15600.0,877.0,-362.0,-33.0,-1996.0,-4293.0,-12064.0,32915.0,5520896.0,2378.0,2822.0,0.0
8602602000,0.010266863228834468,97400.73260073259,2203.0,2047.0,2069.0,2856.0,532.0,-764.0,15600.0,863.0,-365.0,-25.0,-1988.0,-4297.0,-12070.0,32915.0,5520896.0,2321.0,2822.0,0.0
8602858000,0.010266863228834468,97400.73260073259,2290.0,2047.0,2070.0,2857.0,504.0,-700.0,15604.0,883.0,-342.0,-28.0,-1996.0,-4298.0,-12065.0,32915.0,5521664.0,2294.0,2821.0,0.0
8603114000,0.010266863228834468,97400.73260073259,2331.0,2048.0,2067.0,2855.0,484.0,-696.0,15592.0,879.0,-349.0,-25.0,-1996.0,-4298.0,-12065.0,32915.0,5521664.0,2290.0,2823.0,0.0
8603370000,0.010266863228834468,97400.73260073259,2339.0,2048.0,2068.0,2854.0,484.0,-712.0,15604.0,878.0,-365.0,-27.0,-1992.0,-4296.0,-12058.0,32915.0,5521408.0,2281.0,2822.0,0.0
8603626000,0.010266863228834468,97400.73260073259,2346.0,2048.0,2070.0,2853.0,504.0,-704.0,15616.0,862.0,-347.0,-40.0,-1998.0,-4295.0,-12059.0,32915.0,5521408.0,2284.0,2823.0,0.0
8603882000,0.010266863228834468,97400.73260073259,2339.0,2047.0,2070.0,2854.0,556.0,-720.0,15588.0,883.0,-347.0,-29.0,-2001.0,-4291.0,-12068.0,32915.0,5522432.0,2277.0,2821.0,0.0
8604138000,0.010266863228834468,97400.73260073259,2342.0,2050.0,2068.0,2855.0,504.0,-728.0,15600.0,886.0,-351.0,-22.0,-2001.0,-4291.0,-12068.0,32915.0,5522432.0,2281.0,2823.0,0.0
8604394000,0.010266863228834468,97400.73260073259,2349.0,2049.0,2069.0,2855.0,504.0,-704.0,15608.0,887.0,-337.0,-21.0,-2000.0,-4295.0,-12064.0,32915.0,5521664.0,2284.0,2823.0,0.0
8604650000,0.010266863228834468,97400.73260073259,2347.0,2045.0,2068.0,2856.0,464.0,-728.0,15592.0,872.0,-363.0,-24.0,-2002.0,-4295.0,-12065.0,32915.0,5521664.0,2499.0,2810.0,0.0
8604906000,0.010266863228834468,97400.73260073259,2334.0,2048.0,2066.0,2856.0,420.0,-640.0,15592.0,859.0,-374.0,-37.0,-1997.0,-4299.0,-12067.0,32915.0,5521152.0,2382.0,2823.0,0.0
8605162000,0.010266863228834468,97400.73260073259,2213.0,2049.0,2070.0,2857.0,568.0,-704.0,15608.0,902.0,-349.0,-30.0,-1999.0,-4295.0,-12065.0,32915.0,5521152.0,2323.0,2822.0,0.0
8605418000,0.010266863228834468,97400.73260073259,2295.0,2046.0,2071.0,2857.0,488.0,-744.0,15792.0,875.0,-360.0,-34.0,-1999.0,-4295.0,-12065.0,32915.0,5521152.0,2296.0,2822.0,0.0
8605674000,0.010266863228834468,97400.73260073259,2323.0,2048.0,2069.0,2853.0,472.0,-696.0,15600.0,854.0,-363.0,-18.0,-1999.0,-4291.0,-12060.0,32915.0,5521152.0,2284.0,2822.0,0.0
8605930000,0.010266863228834468,97400.73260073259,2340.0,2051.0,2068.0,2855.0,496.0,-684.0,15572.0,882.0,-333.0,-42.0,-2001.0,-4293.0,-12066.0,32915.0,5521152.0,2285.0,2823.0,0.0
8606186000,0.010266863228834468,97400.73260073259,2352.0,2049.0,2069.0,2855.0,456.0,-712.0,15616.0,852.0,-340.0,-23.0,-1992.0,-4295.0,-12063.0,32915.0,5521152.0,2285.0,2823.0,0.0
8606442000,0.010266863228834468,97400.73260073259,2342.0,2049.0,2069.0,2858.0,496.0,-692.0,15576.0,892.0,-348.0,-21.0,-1990.0,-4294.0,-12063.0,32915.0,5521664.0,2277.0,2821.0,0.0
8606698000,0.010266863228834468,97400.73260073259,2337.0,2049.0,2070.0,2853.0,508.0,-732.0,15568.0,864.0,-338.0,-20.0,-1990.0,-4294.0,-12063.0,32915.0,5521664.0,2275.0,2822.0,0.0
8606954000,0.010266863228834468,97400.73260073259,2345.0,2048.0,2066.0,2856.0,488.0,-692.0,15604.0,873.0,-340.0,-19.0,-1993.0,-4293.0,-12067.0,32915.0,5521408.0,2281.0,2823.0,0.0
8607210000,0.010266863228834468,97400.73260073259,2347.0,2048.0,2069.0,2854.0,496.0,-708.0,15612.0,870.0,-338.0,-7.0,-1987.0,-4295.0,-12063.0,32915.0,5521408.0,2284.0,2823.0,0.0
8607466000,0.010266863228834468,97400.73260073259,2342.0,2048.0,2070.0,2856.0,528.0,-704.0,15584.0,863.0,-324.0,-11.0,-1999.0,-4293.0,-12068.0,32915.0,5521408.0,2278.0,2822.0,0.0
8607722000,0.010266863228834468,97400.73260073259,2337.0,2048.0,2069.0,2856.0,500.0,-708.0,15572.0,866.0,-340.0,-40.0,-1999.0,-4293.0,-12068.0,32915.0,5521408.0,2497.0,2810.0,0.0
8607978000,0.010266863228834468,97400.73260073259,2318.0,2049.0,2070.0,2855.0,520.0,-724.0,15576.0,873.0,-350.0,-18.0,-1993.0,-4294.0,-12065.0,32915.0,5521408.0,2375.0,2822.0,0.0
8608234000,0.010266863228834468,97400.73260073259,2210.0,2048.0,2070.0,2856.0,504.0,-736.0,15604.0,860.0,-347.0,-8.0,-1990.0,-4295.0,-12061.0,32915.0,5521408.0,2326.0,2823.0,0.0
8608490000,0.010266863228834468,97400.73260073259,2299.0,2048.0,2068.0,2856.0,508.0,-688.0,15604.0,869.0,-350.0,-37.0,-1997.0,-4293.0,-12064.0,32915.0,5521152.0,2298.0,2822.0,0.0
8608746000,0.010266863228834468,97400.73260073259,2328.0,2047.0,2068.0,2854.0,484.0,-712.0,15616.0,862.0,-341.0,-31.0,-1997.0,-4291.0,-12063.0,32915.0,5521152.0,2285.0,2822.0,0.0
8609002000,0.010266863228834468,97400.73260073259,2330.0,2047.0,2068.0,2856.0,492.0,-700.0,15604.0,877.0,-366.0,-21.0,-1997.0,-4291.0,-12063.0,32915.0,5521152.0,2278.0,2822.0,0.0
8609258000,0.010266863228834468,97400.73260073259,2345.0,2048.0,2069.0,2856.0,496.0,-708.0,15612.0,877.0,-366.0,-21.0,-2001.0,-4294.0,-12063.0,32915.0,5521152.0,2283.0,2823.0,0.0
8609514000,0.010266863228834468,97400.73260073259,2342.0,2049.0,2070.0,2855.0,524.0,-724.0,15584.0,889.0,-358.0,-18.0,-1998.0,-4297.0,-12063.0,32915.0,5521408.0,2278.0,2822.0,0.0
8609770000,0.010266863228834468,97400.73260073259,2350.0,2049.0,2069.0,2856.0,504.0,-732.0,15644.0,865.0,-353.0,-20.0,-1997.0,-4296.0,-12064.0,32915.0,5521408.0,2503.0,2811.0,0.0
8610026000,0.010266863228834468,97400.73260073259,2326.0,2049.0,2069.0,2857.0,484.0,-700.0,15628.0,877.0,-349.0,-24.0,-2004.0,-4294.0,-12061.0,32915.0,5521664.0,2377.0,2822.0,0.0
8610282000,0.010266863228834468,97400.73260073259,2218.0,2048.0,2069.0,2855.0,480.0,-720.0,15604.0,871.0,-331.0,-27.0,-2004.0,-4294.0,-12061.0,32915.0,5521664.0,2327.0,2823.0,0.0
8610538000,0.010266863228834468,97400.73260073259,2281.0,2048.0,2069.0,2854.0,504.0,-720.0,15560.0,873.0,-359.0,-12.0,-1996.0,-4299.0,-12061.0,32915.0,5521408.0,2504.0,2802.0,0.0
8610794000,0.010266863228834468,97400.73260073259,2298.0,2047.0,2070.0,2852.0,508.0,-716.0,15580.0,865.0,-321.0,-12.0,-1995.0,-4292.0,-12063.0,32915.0,5521408.0,2384.0,2823.0,0.0
8611050000,0.010266863228834468,97400.73260073259,2190.0,2048.0,2068.0,2857.0,464.0,-740.0,15624.0,880.0,-346.0,-39.0,-1994.0,-4294.0,-12067.0,32915.0,5521664.0,2324.0,2822.0,0.0
8611306000,0.010266863228834468,97400.73260073259,2299.0,2048.0,2068.0,2857.0,524.0,-720.0,15596.0,878.0,-354.0,-22.0,-1992.0,-4290.0,-12063.0,32915.0,5521664.0,2303.0,2823.0,0.0
8611562000,0.010266863228834468,97400.73260073259,2330.0,2048.0,2069.0,2854.0,500.0,-700.0,15568.0,878.0,-342.0,-23.0,-1992.0,-4290.0,-12063.0,32915.0,5521664.0,2286.0,2821.0,0.0
8611818000,0.010266863228834468,97400.73260073259,2333.0,2047.0,2069.0,2855.0,504.0,-716.0,15556.0,867.0,-334.0,-19.0,-1996.0,-4298.0,-12065.0,32915.0,5521664.0,2280.0,2822.0,0.0
8612074000,0.010266863228834468,97400.73260073259,2347.0,2048.0,2068.0,2858.0,472.0,-724.0,15600.0,874.0,-335.0,-25.0,-1984.0,-4288.0,-12064.0,32915.0,5521664.0,2283.0,2823.0,0.0
8612330000,0.010266863228834468,97400.73260073259,2349.0,2047.0,2068.0,2857.0,508.0,-688.0,15640.0,860.0,-361.0,-23.0,-1987.0,-4294.0,-12060.0,32915.0,5521664.0,2284.0,2823.0,0.0
8612586000,0.010266863228834468,97400.73260073259,2340.0,2048.0,2068.0,2858.0,508.0,-688.0,15628.0,873.0,-350.0,-5.0,-1987.0,-4294.0,-12060.0,32915.0,5522688.0,2277.0,2821.0,0.0
8612842000,0.010266863228834468,97400.73260073259,2347.0,2049.0,2067.0,2858.0,480.0,-704.0,15620.0,866.0,-368.0,-16.0,-1990.0,-4290.0,-12063.0,32915.0,5522688.0,2282.0,2823.0,0.0
8613098000,0.010266863228834468,97400.73260073259,2349.0,2048.0,2069.0,2854.0,500.0,-716.0,15588.0,864.0,-355.0,-33.0,-1994.0,-4296.0,-12064.0,32915.0,5521408.0,2284.0,2823.0,0.0
8613354000,0.010266863228834468,97400.73260073259,2356.0,2047.0,2069.0,2855.0,536.0,-716.0,15596.0,882.0,-345.0,-23.0,-1997.0,-4297.0,-12066.0,32915.0,5521408.0,2285.0,2823.0,0.0
8613610000,0.010266863228834468,97400.73260073259,2351.0,2048.0,2070.0,2857.0,536.0,-748.0,15604.0,872.0,-366.0,-26.0,-2000.0,-4298.0,-12054.0,32915.0,5522432.0,2279.0,2822.0,0.0
8613866000,0.010266863228834468,97400.73260073259,2342.0,2049.0,2068.0,2856.0,476.0,-744.0,15596.0,870.0,-347.0,0.0,-2000.0,-4298.0,-12054.0,32915.0,5522432.0,2498.0,2812.0,0.0
8614122000,0.010266863228834468,97400.73260073259,2331.0,2050.0,2069.0,2858.0,532.0,-716.0,15576.0,866.0,-351.0,-22.0,-2006.0,-4293.0,-12065.0,32915.0,5521920.0,2382.0,2823.0,0.0
8614378000,0.010266863228834468,97400.73260073259,2214.0,2049.0,2068.0,2855.0,548.0,-692.0,15620.0,875.0,-360.0,-27.0,-2005.0,-4291.0,-12064.0,32915.0,5521920.0,2325.0,2824.0,0.0
8614634000,0.010266863228834468,97400.73260073259,2302.0,2049.0,2071.0,2856.0,524.0,-736.0,15596.0,882.0,-326.0,-1.0,-2007.0,-4295.0,-12066.0,32915.0,5521408.0,2297.0,2822.0,0.0
8614890000,0.010266863228834468,97400.73260073259,2323.0,2049.0,2067.0,2855.0,528.0,-720.0,15576.0,867.0,-347.0,-40.0,-2000.0,-4300.0,-12063.0,32915.0,5521408.0,2284.0,2822.0,0.0
8615146000,0.010266863228834468,97400.73260073259,2328.0,2049.0,2068.0,2858.0,528.0,-716.0,15544.0,885.0,-364.0,-37.0,-2000.0,-4300.0,-12063.0,32915.0,5521152.0,2278.0,2822.0,0.0
8615402000,0.010266863228834468,97400.73260073259,2333.0,2049.0,2069.0,2856.0,540.0,-704.0,15612.0,884.0,-364.0,-6.0,-1995.0,-4299.0,-12066.0,32915.0,5521152.0,2278.0,2824.0,0.0
8615658000,0.010266863228834468,97400.73260073259,2332.0,2047.0,2070.0,2855.0,504.0,-720.0,15632.0,887.0,-353.0,-20.0,-1993.0,-4293.0,-12063.0,32915.0,5521664.0,2275.0,2822.0,0.0
8615914000,0.010266863228834468,97400.73260073259,2327.0,2047.0,2069.0,2854.0,520.0,-728.0,15648.0,885.0,-369.0,-30.0,-1989.0,-4292.0,-12060.0,32915.0,5521664.0,2274.0,2822.0,0.0
8616170000,0.010266863228834468,97400.73260073259,2322.0,2048.0,2069.0,2855.0,512.0,-720.0,15576.0,886.0,-360.0,-39.0,-2012.0,-4295.0,-12064.0,32915.0,5522432.0,2274.0,2822.0,0.0
8616426000,0.010266863228834468,97400.73260073259,2331.0,2047.0,2070.0,2855.0,552.0,-716.0,15552.0,894.0,-359.0,-34.0,-2012.0,-4295.0,-12064.0,32915.0,5522432.0,2280.0,2823.0,0.0
8616682000,0.010266863228834468,97400.73260073259,2327.0,2049.0,2069.0,2854.0,524.0,-728.0,15648.0,900.0,-346.0,-25.0,-1988.0,-4291.0,-12063.0,32915.0,5521664.0,2276.0,2822.0,0.0
8616938000,0.010266863228834468,97400.73260073259,2343.0,2049.0,2068.0,2857.0,544.0,-728.0,15616.0,874.0,-352.0,-4.0,-1995.0,-4297.0,-12058.0,32915.0,5521664.0,2503.0,2813.0,0.0
8617194000,0.010266863228834468,97400.73260073259,2323.0,2048.0,2069.0,2858.0,532.0,-700.0,15588.0,872.0,-356.0,-12.0,-1992.0,-4292.0,-12063.0,32915.0,5521408.0,2378.0,2822.0,0.0
8617450000,0.010266863228834468,97400.73260073259,2210.0,2049.0,2068.0,2857.0,548.0,-716.0,15580.0,871.0,-343.0,-17.0,-1992.0,-4292.0,-12063.0,32915.0,5521408.0,2328.0,2823.0,0.0
8617706000,0.010266863228834468,97400.73260073259,2303.0,2048.0,2067.0,2856.0,500.0,-728.0,15592.0,871.0,-343.0,-16.0,-1992.0,-4292.0,-12062.0,32915.0,5521664.0,2298.0,2822.0,0.0
8617962000,0.010266863228834468,97400.73260073259,2337.0,2048.0,2068.0,2853.0,524.0,-680.0,15640.0,860.0,-362.0,-27.0,-2001.0,-4296.0,-12070.0,32915.0,5521664.0,2292.0,2823.0,0.0
8618218000,0.010267069159178435,97398.77899877899,2350.0,2049.0,2069.0,2855.0,504.0,-740.0,15616.0,882.0,-354.0,-37.0,-1997.0,-4296.0,-12058.0,32915.0,5521664.0,2288.0,2823.0,0.0
8618474000,0.010266863228834468,97400.73260073259,2362.0,2048.0,2068.0,2855.0,496.0,-700.0,15560.0,876.0,-339.0,-34.0,-1999.0,-4293.0,-12067.0,32915.0,5521664.0,2287.0,2823.0,0.0
8618730000,0.010266863228834468,97400.73260073259,2348.0,2048.0,2069.0,2855.0,524.0,-764.0,15576.0,873.0,-351.0,-42.0,-1999.0,-4293.0,-12067.0,32915.0,5521664.0,2278.0,2821.0,0.0
8618986000,0.010266863228834468,97400.73260073259,2358.0,2048.0,2068.0,2856.0,524.0,-732.0,15604.0,865.0,-345.0,-28.0,-2000.0,-4300.0,-12065.0,32915.0,5521664.0,2505.0,2814.0,0.0
8619242000,0.010266863228834468,97400.73260073259,2331.0,2048.0,2069.0,2856.0,524.0,-724.0,15624.0,878.0,-347.0,-21.0,-1994.0,-4295.0,-12059.0,32915.0,5521152.0,2378.0,2822.0,0.0
8619498000,0.010266863228834468,97400.73260073259,2220.0,2048.0,2070.0,2857.0,520.0,-744.0,15644.0,860.0,-351.0,-26.0,-1995.0,-4288.0,-12066.0,32915.0,5521152.0,2327.0,2823.0,0.0
8619754000,0.010266863228834468,97400.73260073259,2305.0,2049.0,2068.0,2854.0,504.0,-736.0,15604.0,876.0,-324.0,-29.0,-1998.0,-4293.0,-12060.0,32915.0,5520896.0,2297.0,2821.0,0.0
8620010000,0.010266863228834468,97400.73260073259,2346.0,2049.0,2068.0,2857.0,532.0,-724.0,15592.0,853.0,-349.0,-14.0,-1998.0,-4293.0,-12060.0,32915.0,5520896.0,2514.0,2814.0,0.0
8620266000,0.010266863228834468,97400.73260073259,2346.0,2049.0,2069.0,2857.0,508.0,-732.0,15624.0,879.0,-341.0,-26.0,-1998.0,-4292.0,-12062.0,32915.0,5521920.0,2389.0,2823.0,0.0
8620522000,0.010266863228834468,97400.73260073259,2204.0,2048.0,2070.0,2855.0,536.0,-700.0,15676.0,885.0,-331.0,-32.0,-1995.0,-4294.0,-12063.0,32915.0,5521920.0,2315.0,2817.0,0.0
8620778000,0.010266863228834468,97400.73260073259,2284.0,2048.0,2070.0,2855.0,472.0,-776.0,15608.0,872.0,-354.0,-28.0,-1991.0,-4296.0,-12065.0,32915.0,5522432.0,2292.0,2822.0,0.0
8621034000,0.010266863228834468,97400.73260073259,2315.0,2048.0,2068.0,2855.0,532.0,-768.0,15580.0,875.0,-331.0,-16.0,-1991.0,-4296.0,-12065.0,32915.0,5522432.0,2282.0,2822.0,0.0
8621290000,0.010266863228834468,97400.73260073259,2323.0,2049.0,2068.0,2855.0,516.0,-696.0,15620.0,862.0,-348.0,-30.0,-1989.0,-4291.0,-12065.0,32915.0,5521664.0,2278.0,2822.0,0.0
8621546000,0.010266863228834468,97400.73260073259,2329.0,2048.0,2068.0,2855.0,520.0,-736.0,15636.0,849.0,-367.0,-18.0,-1993.0,-4292.0,-12065.0,32915.0,5521664.0,2277.0,2824.0,0.0
8621802000,0.010266863228834468,97400.73260073259,2331.0,2049.0,2069.0,2856.0,512.0,-748.0,15644.0,875.0,-355.0,-57.0,-1998.0,-4295.0,-12063.0,32915.0,5521664.0,2275.0,2822.0,0.0
8622058000,0.010266863228834468,97400.73260073259,2343.0,2048.0,2068.0,2855.0,532.0,-724.0,15592.0,880.0,-353.0,-22.0,-1997.0,-4292.0,-12065.0,32915.0,5521664.0,2503.0,2813.0,0.0
8622314000,0.010266863228834468,97400.73260073259,2324.0,2047.0,2069.0,2857.0,520.0,-752.0,15616.0,876.0,-339.0,-27.0,-1997.0,-4292.0,-12065.0,32915.0,5522432.0,2377.0,2822.0,0.0
8622570000,0.010266863228834468,97400.73260073259,2212.0,2047.0,2070.0,2854.0,536.0,-760.0,15604.0,869.0,-327.0,-32.0,-1997.0,-4287.0,-12063.0,32915.0,5522432.0,2328.0,2823.0,0.0
8622826000,0.010266863228834468,97400.73260073259,2302.0,2049.0,2070.0,2855.0,488.0,-712.0,15632.0,859.0,-343.0,-14.0,-1996.0,-4299.0,-12064.0,32915.0,5521664.0,2298.0,2822.0,0.0
8623082000,0.010266863228834468,97400.73260073259,2353.0,2050.0,2070.0,2855.0,540.0,-760.0,15612.0,866.0,-349.0,-18.0,-1995.0,-4297.0,-12062.0,32915.0,5521664.0,2520.0,2815.0,0.0
8623338000,0.010266863228834468,97400.73260073259,2339.0,2048.0,2071.0,2855.0,540.0,-712.0,15604.0,867.0,-347.0,-41.0,-1998.0,-4291.0,-12066.0,32915.0,5521920.0,2386.0,2822.0,0.0
8623594000,0.010266863228834468,97400.73260073259,2399.0,2048.0,2069.0,2855.0,508.0,-740.0,15640.0,866.0,-349.0,-6.0,-1998.0,-4291.0,-12066.0,32915.0,5521920.0,2531.0,2802.0,0.0
8623850000,0.010266863228834468,97400.73260073259,2379.0,2049.0,2069.0,2856.0,528.0,-740.0,15608.0,877.0,-354.0,-24.0,-2002.0,-4296.0,-12064.0,32915.0,5521664.0,2391.0,2822.0,0.0
8624106000,0.010266863228834468,97400.73260073259,2247.0,2048.0,2069.0,2857.0,532.0,-672.0,15632.0,890.0,-354.0,-11.0,-1997.0,-4300.0,-12067.0,32915.0,5521664.0,2327.0,2822.0,0.0
8624362000,0.010266863228834468,97400.73260073259,2125.0,2047.0,2069.0,2856.0,524.0,-728.0,15596.0,875.0,-350.0,-35.0,-1994.0,-4295.0,-12059.0,32915.0,5522432.0,2304.0,2823.0,0.0
8624618000,0.010266863228834468,97400.73260073259,2244.0,2048.0,2069.0,2856.0,540.0,-748.0,15588.0,871.0,-350.0,-34.0,-1991.0,-4297.0,-12069.0,32915.0,5522432.0,2294.0,2823.0,0.0
8624874000,0.010266863228834468,97400.73260073259,2300.0,2048.0,2069.0,2855.0,536.0,-716.0,15576.0,879.0,-344.0,-17.0,-1991.0,-4297.0,-12069.0,32915.0,5522432.0,2283.0,2822.0,0.0
8625130000,0.010266863228834468,97400.73260073259,2351.0,2048.0,2070.0,2855.0,532.0,-724.0,15636.0,879.0,-345.0,-32.0,-1988.0,-4294.0,-12063.0,32915.0,5522432.0,2520.0,2815.0,0.0
8625386000,0.010266863228834468,97400.73260073259,2340.0,2048.0,2071.0,2856.0,536.0,-740.0,15620.0,874.0,-334.0,-39.0,-1990.0,-4297.0,-12062.0,32915.0,5521920.0,2385.0,2822.0,0.0
8625642000,0.010266863228834468,97400.73260073259,2235.0,2048.0,2070.0,2857.0,564.0,-744.0,15644.0,875.0,-358.0,-23.0,-1988.0,-4294.0,-12066.0,32915.0,5521920.0,2331.0,2823.0,0.0
8625898000,0.010266863228834468,97400.73260073259,2291.0,2049.0,2070.0,2855.0,532.0,-700.0,15584.0,878.0,-348.0,-21.0,-1988.0,-4294.0,-12066.0,32915.0,5522176.0,2505.0,2801.0,0.0
8626154000,0.010266863228834468,97400.73260073259,2298.0,2048.0,2071.0,2857.0,532.0,-676.0,15608.0,878.0,-348.0,-21.0,-1988.0,-4289.0,-12064.0,32915.0,5522176.0,2378.0,2822.0,0.0
8626410000,0.010266863228834468,97400.73260073259,2188.0,2048.0,2069.0,2858.0,532.0,-720.0,15596.0,884.0,-364.0,-28.0,-1992.0,-4302.0,-12070.0,32915.0,5521408.0,2321.0,2822.0,0.0
8626666000,0.010266863228834468,97400.73260073259,2293.0,2047.0,2068.0,2856.0,572.0,-748.0,15560.0,882.0,-348.0,-22.0,-1995.0,-4296.0,-12068.0,32915.0,5521408.0,2302.0,2823.0,0.0
8626922000,0.010266863228834468,97400.73260073259,2326.0,2049.0,2068.0,2857.0,536.0,-732.0,15624.0,876.0,-321.0,-27.0,-1998.0,-4301.0,-12061.0,32915.0,5522176.0,2285.0,2821.0,0.0
8627178000,0.010266863228834468,97400.73260073259,2356.0,2048.0,2066.0,2857.0,536.0,-704.0,15664.0,889.0,-348.0,-28.0,-1998.0,-4301.0,-12061.0,32915.0,5522176.0,2514.0,2815.0,0.0
8627434000,0.010266863228834468,97400.73260073259,2344.0,2047.0,2069.0,2857.0,560.0,-728.0,15624.0,883.0,-351.0,-32.0,-1994.0,-4303.0,-12064.0,32915.0,5521664.0,2383.0,2822.0,0.0
8627690000,0.010266863228834468,97400.73260073259,2231.0,2050.0,2069.0,2859.0,496.0,-716.0,15624.0,883.0,-340.0,-34.0,-1999.0,-4298.0,-12063.0,32915.0,5521664.0,2330.0,2823.0,0.0
8627946000,0.010266863228834468,97400.73260073259,2310.0,2050.0,2070.0,2855.0,520.0,-704.0,15616.0,876.0,-353.0,-30.0,-1998.0,-4303.0,-12063.0,32915.0,5521664.0,2298.0,2821.0,0.0
8628202000,0.010266863228834468,97400.73260073259,2350.0,2048.0,2068.0,2858.0,536.0,-696.0,15624.0,874.0,-334.0,-26.0,-1995.0,-4293.0,-12064.0,32915.0,5521664.0,2514.0,2814.0,0.0
8628458000,0.010266863228834468,97400.73260073259,2338.0,2047.0,2070.0,2857.0,532.0,-752.0,15608.0,876.0,-358.0,-44.0,-1995.0,-4293.0,-12064.0,32915.0,5522432.0,2383.0,2822.0,0.0
8628714000,0.010266863228834468,97400.73260073259,2228.0,2049.0,2069.0,2854.0,560.0,-740.0,15600.0,871.0,-353.0,-8.0,-1997.0,-4297.0,-12070.0,32915.0,5522432.0,2330.0,2823.0,0.0
8628970000,0.010266863228834468,97400.73260073259,2316.0,2050.0,2070.0,2855.0,504.0,-684.0,15612.0,882.0,-332.0,-24.0,-1998.0,-4298.0,-12065.0,32915.0,5522432.0,2299.0,2822.0,0.0
8629226000,0.010266863228834468,97400.73260073259,2359.0,2048.0,2070.0,2855.0,564.0,-740.0,15620.0,857.0,-338.0,-46.0,-1991.0,-4298.0,-12066.0,32915.0,5522432.0,2520.0,2815.0,0.0
8629482000,0.010266863228834468,97400.73260073259,2339.0,2048.0,2070.0,2856.0,560.0,-704.0,15636.0,883.0,-350.0,-35.0,-1991.0,-4298.0,-12066.0,32915.0,5522432.0,2384.0,2821.0,0.0
8629738000,0.010266863228834468,97400.73260073259,2233.0,2048.0,2068.0,2855.0,528.0,-728.0,15600.0,869.0,-346.0,-24.0,-1986.0,-4299.0,-12071.0,32915.0,5522432.0,2331.0,2823.0,0.0
8629994000,0.010266863228834468,97400.73260073259,2294.0,2049.0,2069.0,2855.0,520.0,-740.0,15608.0,888.0,-349.0,-29.0,-1994.0,-4296.0,-12066.0,32915.0,5521664.0,2505.0,2802.0,0.0
8630250000,0.010266863228834468,97400.73260073259,2326.0,2047.0,2069.0,2854.0,524.0,-728.0,15612.0,883.0,-345.0,-25.0,-1990.0,-4299.0,-12061.0,32915.0,5521664.0,2615.0,2815.0,0.0
8630506000,0.010266863228834468,97400.73260073259,2398.0,2050.0,2068.0,2856.0,516.0,-720.0,15656.0,868.0,-368.0,-34.0,-1989.0,-4303.0,-12067.0,32915.0,5520896.0,2429.0,2822.0,0.0
8630762000,0.010266863228834468,97400.73260073259,2290.0,2048.0,2069.0,2859.0,492.0,-744.0,15660.0,869.0,-354.0,-22.0,-1989.0,-4303.0,-12067.0,32915.0,5520896.0,2345.0,2822.0,0.0
8631018000,0.010266863228834468,97400.73260073259,2154.0,2047.0,2069.0,2855.0,516.0,-716.0,15580.0,882.0,-352.0,-14.0,-1989.0,-4299.0,-12071.0,32915.0,5522688.0,2306.0,2822.0,0.0
8631274000,0.010266863228834468,97400.73260073259,2279.0,2048.0,2070.0,2854.0,508.0,-716.0,15604.0,882.0,-343.0,-14.0,-1994.0,-4301.0,-12065.0,32915.0,5522688.0,2524.0,2815.0,0.0
8631530000,0.010266863228834468,97400.73260073259,2308.0,2049.0,2068.0,2855.0,556.0,-716.0,15620.0,878.0,-362.0,-36.0,-1992.0,-4301.0,-12065.0,32915.0,5521664.0,2387.0,2822.0,0.0
8631786000,0.010266863228834468,97400.73260073259,2199.0,2049.0,2067.0,2858.0,496.0,-684.0,15604.0,877.0,-341.0,-26.0,-1988.0,-4294.0,-12071.0,32915.0,5521664.0,2325.0,2822.0,0.0
8632042000,0.010266863228834468,97400.73260073259,2294.0,2048.0,2069.0,2857.0,504.0,-736.0,15584.0,888.0,-355.0,-17.0,-1988.0,-4294.0,-12071.0,32915.0,5522432.0,2297.0,2822.0,0.0
8632298000,0.010266863228834468,97400.73260073259,2327.0,2050.0,2069.0,2854.0,544.0,-720.0,15564.0,876.0,-370.0,-30.0,-1996.0,-4297.0,-12067.0,32915.0,5522432.0,2285.0,2822.0,0.0
8632554000,0.010266863228834468,97400.73260073259,2335.0,2049.0,2069.0,2856.0,568.0,-712.0,15620.0,869.0,-362.0,-15.0,-1997.0,-4303.0,-12065.0,32915.0,5521664.0,2279.0,2822.0,0.0
8632810000,0.010266863228834468,97400.73260073259,2343.0,2049.0,2070.0,2855.0,512.0,-696.0,15608.0,885.0,-347.0,-19.0,-1992.0,-4299.0,-12067.0,32915.0,5521664.0,2282.0,2823.0,0.0
8633066000,0.010266863228834468,97400.73260073259,2336.0,2048.0,2071.0,2850.0,508.0,-712.0,15564.0,857.0,-342.0,-27.0,-1999.0,-4300.0,-12071.0,32915.0,5521152.0,2277.0,2822.0,0.0
8633322000,0.010266863228834468,97400.73260073259,2335.0,2049.0,2069.0,2853.0,556.0,-724.0,15524.0,864.0,-334.0,-49.0,-1999.0,-4300.0,-12071.0,32915.0,5521152.0,2275.0,2822.0,0.0
8633578000,0.010266863228834468,97400.73260073259,2335.0,2048.0,2068.0,2856.0,528.0,-728.0,15624.0,866.0,-334.0,-24.0,-1993.0,-4300.0,-12067.0,32915.0,5522176.0,2275.0,2822.0,0.0
8633834000,0.010266863228834468,97400.73260073259,2340.0,2046.0,2066.0,2866.0,484.0,-728.0,15812.0,868.0,-324.0,-21.0,-1989.0,-4303.0,-12067.0,32915.0,5522176.0,2281.0,2823.0,0.0
8634090000,0.010267069159178435,97398.77899877899,2337.0,2047.0,2068.0,2866.0,496.0,-736.0,15816.0,876.0,-352.0,-27.0,-1987.0,-4296.0,-12066.0,32915.0,5521920.0,2275.0,2821.0,0.0
8634346000,0.010267069159178435,97398.77899877899,2313.0,2049.0,2069.0,2855.0,496.0,-720.0,15676.0,877.0,-360.0,-12.0,-1987.0,-4296.0,-12066.0,32915.0,5521920.0,2263.0,2817.0,0.0
8634602000,0.010266863228834468,97400.73260073259,2310.0,2049.0,2070.0,2849.0,544.0,-732.0,15416.0,871.0,-368.0,-35.0,-1988.0,-4290.0,-12069.0,32915.0,5521664.0,2269.0,2822.0,0.0
8634858000,0.010266863228834468,97400.73260073259,2315.0,2049.0,2070.0,2850.0,536.0,-748.0,15500.0,891.0,-358.0,-40.0,-1986.0,-4303.0,-12069.0,32915.0,5521664.0,2273.0,2824.0,0.0
8635114000,0.010266863228834468,97400.73260073259,2310.0,2050.0,2069.0,2856.0,528.0,-732.0,15644.0,865.0,-346.0,-23.0,-1987.0,-4296.0,-12069.0,32915.0,5521664.0,2272.0,2821.0,0.0
8635370000,0.010266863228834468,97400.73260073259,2314.0,2050.0,2068.0,2855.0,572.0,-748.0,15852.0,863.0,-358.0,-23.0,-1983.0,-4300.0,-12068.0,32915.0,5521664.0,2271.0,2821.0,0.0
8635626000,0.010266863228834468,97400.73260073259,2310.0,2047.0,2070.0,2856.0,520.0,-768.0,15584.0,875.0,-333.0,-21.0,-1983.0,-4300.0,-12068.0,32915.0,5521664.0,2272.0,2822.0,0.0
8635882000,0.010266863228834468,97400.73260073259,2323.0,2047.0,2070.0,2855.0,536.0,-712.0,15580.0,885.0,-335.0,-27.0,-1991.0,-4301.0,-12067.0,32915.0,5521664.0,2280.0,2823.0,0.0
8636138000,0.010266863228834468,97400.73260073259,2324.0,2047.0,2068.0,2856.0,516.0,-712.0,15628.0,859.0,-350.0,-40.0,-1990.0,-4301.0,-12065.0,32915.0,5521664.0,2276.0,2822.0,0.0
8636394000,0.010266863228834468,97400.73260073259,2293.0,2048.0,2068.0,2854.0,540.0,-708.0,15628.0,852.0,-340.0,-34.0,-1993.0,-4300.0,-12066.0,32915.0,5521664.0,2257.0,2816.0,0.0
8636650000,0.010266863228834468,97400.73260073259,2293.0,2048.0,2069.0,2856.0,528.0,-732.0,15584.0,878.0,-334.0,-27.0,-1995.0,-4301.0,-12070.0,32915.0,5521664.0,2266.0,2822.0,0.0
8636906000,0.010266863228834468,97400.73260073259,2293.0,2048.0,2067.0,2857.0,528.0,-716.0,15616.0,849.0,-341.0,-17.0,-1995.0,-4301.0,-12070.0,32915.0,5521664.0,2266.0,2819.0,0.0
8637162000,0.010266863228834468,97400.73260073259,2300.0,2050.0,2069.0,2856.0,488.0,-732.0,15640.0,880.0,-352.0,-14.0,-2002.0,-4296.0,-12069.0,32915.0,5522432.0,2270.0,2822.0,0.0
8637418000,0.010266863228834468,97400.73260073259,2284.0,2047.0,2070.0,2858.0,516.0,-720.0,15612.0,860.0,-339.0,-25.0,-1988.0,-4299.0,-12067.0,32915.0,5522432.0,2260.0,2817.0,0.0
8637674000,0.010266863228834468,97400.73260073259,2292.0,2048.0,2069.0,2855.0,480.0,-768.0,15620.0,877.0,-352.0,-26.0,-1998.0,-4303.0,-12069.0,32915.0,5521664.0,2267.0,2822.0,0.0
8637930000,0.010266863228834468,97400.73260073259,2310.0,2048.0,2069.0,2856.0,508.0,-700.0,15576.0,871.0,-376.0,-15.0,-1999.0,-4305.0,-12064.0,32915.0,5521664.0,2277.0,2823.0,0.0
8638186000,0.010266863228834468,97400.73260073259,2316.0,2048.0,2068.0,2856.0,516.0,-732.0,15548.0,860.0,-355.0,-34.0,-1999.0,-4305.0,-12064.0,32915.0,5521664.0,2274.0,2821.0,0.0
8638442000,0.010266863228834468,97400.73260073259,2298.0,2048.0,2070.0,2853.0,532.0,-704.0,15556.0,877.0,-353.0,-40.0,-1998.0,-4300.0,-12064.0,32915.0,5521664.0,2262.0,2817.0,0.0
8638698000,0.010266863228834468,97400.73260073259,2297.0,2049.0,2072.0,2854.0,516.0,-740.0,15636.0,882.0,-334.0,-35.0,-1991.0,-4298.0,-12064.0,32915.0,5521664.0,2268.0,2822.0,0.0
8638954000,0.010266863228834468,97400.73260073259,2313.0,2049.0,2068.0,2859.0,504.0,-744.0,15624.0,875.0,-331.0,-24.0,-1990.0,-4299.0,-12065.0,32915.0,5521664.0,2277.0,2823.0,0.0
8639210000,0.010266863228834468,97400.73260073259,2315.0,2048.0,2068.0,2857.0,544.0,-764.0,15580.0,860.0,-348.0,-29.0,-1990.0,-4299.0,-12065.0,32915.0,5522688.0,2274.0,2821.0,0.0
8639466000,0.010266863228834468,97400.73260073259,2300.0,2049.0,2068.0,2855.0,564.0,-716.0,15528.0,879.0,-347.0,-10.0,-1992.0,-4297.0,-12063.0,32915.0,5522688.0,2262.0,2817.0,0.0
8639722000,0.010266863228834468,97400.73260073259,2296.0,2048.0,2068.0,2855.0,520.0,-728.0,15592.0,879.0,-358.0,-30.0,-1987.0,-4305.0,-12068.0,32915.0,5521920.0,2268.0,2822.0,0.0
8639978000,0.010266863228834468,97400.73260073259,2289.0,2048.0,2069.0,2854.0,508.0,-720.0,15648.0,868.0,-357.0,-12.0,-1990.0,-4302.0,-12067.0,32915.0,5521920.0,2483.0,2803.0,0.0
8640234000,0.010266863228834468,97400.73260073259,2272.0,2049.0,2068.0,2856.0,528.0,-708.0,15580.0,877.0,-346.0,-24.0,-1985.0,-4302.0,-12065.0,32915.0,5522432.0,2368.0,2822.0,0.0
8640490000,0.010266863228834468,97400.73260073259,2160.0,2048.0,2070.0,2855.0,556.0,-740.0,15568.0,861.0,-352.0,-29.0,-1985.0,-4302.0,-12065.0,32915.0,5522432.0,2316.0,2822.0,0.0
8640746000,0.010266863228834468,97400.73260073259,2268.0,2048.0,2071.0,2853.0,512.0,-760.0,15596.0,867.0,-360.0,-23.0,-1999.0,-4301.0,-12063.0,32915.0,5521408.0,2293.0,2822.0,0.0
8641002000,0.010266863228834468,97400.73260073259,2317.0,2048.0,2069.0,2855.0,540.0,-716.0,15648.0,872.0,-358.0,-37.0,-1996.0,-4301.0,-12064.0,32915.0,5521408.0,2289.0,2823.0,0.0
8641258000,0.010266863228834468,97400.73260073259,2331.0,2047.0,2069.0,2856.0,580.0,-716.0,15612.0,859.0,-353.0,-40.0,-1990.0,-4299.0,-12065.0,32915.0,5522688.0,2279.0,2821.0,0.0
8641514000,0.010266863228834468,97400.73260073259,2325.0,2047.0,2070.0,2856.0,532.0,-716.0,15596.0,871.0,-346.0,-37.0,-1996.0,-4301.0,-12064.0,32915.0,5522688.0,2276.0,2822.0,0.0
8641770000,0.010266863228834468,97400.73260073259,2336.0,2049.0,2067.0,2856.0,552.0,-732.0,15608.0,870.0,-351.0,-41.0,-1996.0,-4301.0,-12064.0,32915.0,5522176.0,2281.0,2823.0,0.0
8642026000,0.010266863228834468,97400.73260073259,2343.0,2049.0,2069.0,2855.0,508.0,-704.0,15616.0,888.0,-355.0,-32.0,-1998.0,-4298.0,-12068.0,32915.0,5522176.0,2279.0,2824.0,0.0
8642282000,0.010266863228834468,97400.73260073259,2331.0,2049.0,2068.0,2857.0,524.0,-720.0,15592.0,863.0,-337.0,-10.0,-1989.0,-4302.0,-12068.0,32915.0,5521664.0,2274.0,2821.0,0.0
8642538000,0.010266863228834468,97400.73260073259,2312.0,2047.0,2069.0,2856.0,508.0,-728.0,15576.0,874.0,-352.0,-18.0,-1998.0,-4301.0,-12063.0,32915.0,5521664.0,2263.0,2817.0,0.0
8642794000,0.010266863228834468,97400.73260073259,2303.0,2048.0,2068.0,2857.0,516.0,-668.0,15652.0,875.0,-374.0,-30.0,-1998.0,-4301.0,-12063.0,32915.0,5521664.0,2268.0,2822.0,0.0
8643050000,0.010266863228834468,97400.73260073259,2278.0,2048.0,2069.0,2855.0,508.0,-712.0,15600.0,875.0,-374.0,-30.0,-1994.0,-4296.0,-12068.0,32915.0,5521664.0,2477.0,2802.0,0.0
8643306000,0.010266863228834468,97400.73260073259,2266.0,2048.0,2069.0,2855.0,460.0,-720.0,15568.0,869.0,-352.0,-25.0,-2017.0,-4302.0,-12063.0,32915.0,5522432.0,2365.0,2822.0,0.0
8643562000,0.010266863228834468,97400.73260073259,2156.0,2047.0,2070.0,2857.0,500.0,-696.0,15636.0,857.0,-338.0,-25.0,-1994.0,-4295.0,-12067.0,32915.0,5522432.0,2316.0,2822.0,0.0
8643818000,0.010266863228834468,97400.73260073259,2259.0,2049.0,2069.0,2858.0,492.0,-692.0,15640.0,877.0,-326.0,-9.0,-1994.0,-4300.0,-12065.0,32915.0,5521152.0,2292.0,2822.0,0.0
8644074000,0.010266863228834468,97400.73260073259,2286.0,2048.0,2069.0,2857.0,508.0,-724.0,15560.0,881.0,-363.0,-30.0,-1994.0,-4300.0,-12065.0,32915.0,5521152.0,2274.0,2820.0,0.0
8644330000,0.010266863228834468,97400.73260073259,2302.0,2047.0,2068.0,2855.0,504.0,-748.0,15640.0,881.0,-347.0,-30.0,-1989.0,-4300.0,-12066.0,32915.0,5521408.0,2274.0,2822.0,0.0
8644586000,0.010266863228834468,97400.73260073259,2293.0,2048.0,2069.0,2854.0,488.0,-716.0,15628.0,901.0,-354.0,-24.0,-1994.0,-4295.0,-12070.0,32915.0,5521408.0,2264.0,2818.0,0.0
8644842000,0.010266863228834468,97400.73260073259,2297.0,2048.0,2070.0,2856.0,484.0,-708.0,15572.0,877.0,-341.0,-25.0,-1990.0,-4298.0,-12069.0,32915.0,5522432.0,2269.0,2822.0,0.0
8645098000,0.010266863228834468,97400.73260073259,2305.0,2048.0,2067.0,2855.0,500.0,-676.0,15592.0,851.0,-340.0,-27.0,-1992.0,-4303.0,-12066.0,32915.0,5522432.0,2271.0,2822.0,0.0
8645354000,0.010266863228834468,97400.73260073259,2307.0,2049.0,2069.0,2856.0,508.0,-728.0,15360.0,889.0,-361.0,-24.0,-1992.0,-4303.0,-12066.0,32915.0,5521664.0,2272.0,2822.0,0.0
8645610000,0.010266863228834468,97400.73260073259,2299.0,2048.0,2068.0,2855.0,464.0,-756.0,15608.0,882.0,-347.0,-23.0,-1994.0,-4300.0,-12069.0,32915.0,5521664.0,2263.0,2818.0,0.0
8645866000,0.010266863228834468,97400.73260073259,2298.0,2048.0,2069.0,2854.0,520.0,-684.0,15628.0,890.0,-343.0,-12.0,-1999.0,-4300.0,-12061.0,32915.0,5522176.0,2268.0,2822.0,0.0
8646122000,0.010266863228834468,97400.73260073259,2314.0,2048.0,2068.0,2857.0,480.0,-680.0,15584.0,871.0,-356.0,-5.0,-1996.0,-4301.0,-12066.0,32915.0,5522176.0,2278.0,2823.0,0.0
8646378000,0.010266863228834468,97400.73260073259,2285.0,2048.0,2068.0,2856.0,508.0,-696.0,15580.0,864.0,-343.0,-30.0,-1992.0,-4299.0,-12062.0,32915.0,5522432.0,2480.0,2801.0,0.0
8646634000,0.010266863228834468,97400.73260073259,2255.0,2047.0,2069.0,2856.0,492.0,-692.0,15592.0,879.0,-350.0,-1.0,-1992.0,-4299.0,-12062.0,32915.0,5522432.0,2357.0,2818.0,0.0
8646890000,0.010266863228834468,97400.73260073259,2143.0,2047.0,2069.0,2856.0,516.0,-716.0,15584.0,877.0,-352.0,-23.0,-1993.0,-4302.0,-12066.0,32915.0,5521664.0,2312.0,2822.0,0.0
8647146000,0.010266863228834468,97400.73260073259,2263.0,2047.0,2069.0,2858.0,484.0,-748.0,15560.0,884.0,-338.0,-22.0,-1999.0,-4300.0,-12064.0,32915.0,5521664.0,2297.0,2823.0,0.0
8647402000,0.010266863228834468,97400.73260073259,2307.0,2049.0,2070.0,2856.0,496.0,-696.0,15604.0,873.0,-355.0,-32.0,-1995.0,-4298.0,-12056.0,32915.0,5522432.0,2283.0,2821.0,0.0
8647658000,0.010266863228834468,97400.73260073259,2318.0,2049.0,2069.0,2857.0,520.0,-692.0,15604.0,872.0,-359.0,-37.0,-1995.0,-4298.0,-12056.0,32915.0,5522432.0,2278.0,2822.0,0.0
8647914000,0.010266863228834468,97400.73260073259,2327.0,2047.0,2070.0,2856.0,544.0,-748.0,15592.0,879.0,-358.0,-41.0,-1994.0,-4297.0,-12062.0,32915.0,5522176.0,2275.0,2822.0,0.0
8648170000,0.010266863228834468,97400.73260073259,2336.0,2047.0,2070.0,2854.0,456.0,-712.0,15580.0,894.0,-351.0,-21.0,-1992.0,-4302.0,-12066.0,32915.0,5522176.0,2281.0,2823.0,0.0
8648426000,0.010266863228834468,97400.73260073259,2335.0,2048.0,2070.0,2857.0,504.0,-716.0,15636.0,883.0,-352.0,-21.0,-1991.0,-4298.0,-12064.0,32915.0,5521920.0,2277.0,2822.0,0.0
8648682000,0.010266863228834468,97400.73260073259,2333.0,2048.0,2070.0,2855.0,476.0,-728.0,15640.0,856.0,-349.0,-26.0,-1990.0,-4302.0,-12064.0,32915.0,5521920.0,2275.0,2822.0,0.0
8648938000,0.010266863228834468,97400.73260073259,2326.0,2048.0,2069.0,2854.0,512.0,-728.0,15596.0,891.0,-356.0,-38.0,-1990.0,-4302.0,-12064.0,32915.0,5522432.0,2274.0,2822.0,0.0
8649194000,0.010266863228834468,97400.73260073259,2334.0,2049.0,2067.0,2855.0,520.0,-712.0,15592.0,858.0,-369.0,-28.0,-1988.0,-4300.0,-12066.0,32915.0,5522432.0,2280.0,2823.0,0.0
8649450000,0.010266863228834468,97400.73260073259,2327.0,2050.0,2069.0,2854.0,504.0,-732.0,15596.0,879.0,-348.0,-44.0,-1993.0,-4299.0,-12070.0,32915.0,5521664.0,2276.0,2822.0,0.0
8649706000,0.010266863228834468,97400.73260073259,2310.0,2048.0,2068.0,2853.0,512.0,-728.0,15612.0,865.0,-355.0,-20.0,-1997.0,-4292.0,-12066.0,32915.0,5521664.0,2265.0,2818.0,0.0
8649962000,0.010266863228834468,97400.73260073259,2303.0,2048.0,2068.0,2857.0,488.0,-740.0,15632.0,892.0,-361.0,-25.0,-1995.0,-4301.0,-12066.0,32915.0,5522944.0,2268.0,2821.0,0.0
8650218000,0.010266863228834468,97400.73260073259,2308.0,2049.0,2069.0,2856.0,516.0,-700.0,15588.0,865.0,-351.0,-31.0,-1995.0,-4301.0,-12066.0,32915.0,5522944.0,2271.0,2822.0,0.0
8650474000,0.010266863228834468,97400.73260073259,2293.0,2048.0,2070.0,2855.0,524.0,-724.0,15604.0,863.0,-353.0,-45.0,-2000.0,-4301.0,-12066.0,32915.0,5522688.0,2484.0,2803.0,0.0
8650730000,0.010266863228834468,97400.73260073259,2280.0,2048.0,2069.0,2854.0,524.0,-720.0,15616.0,888.0,-358.0,-38.0,-1999.0,-4301.0,-12067.0,32915.0,5522688.0,2369.0,2822.0,0.0
8650986000,0.010266863228834468,97400.73260073259,2171.0,2049.0,2071.0,2854.0,484.0,-688.0,15588.0,882.0,-342.0,-24.0,-1994.0,-4303.0,-12064.0,32915.0,5522432.0,2317.0,2822.0,0.0
8651242000,0.010266863228834468,97400.73260073259,2271.0,2049.0,2068.0,2855.0,520.0,-708.0,15596.0,868.0,-347.0,-24.0,-1994.0,-4303.0,-12064.0,32915.0,5522432.0,2293.0,2822.0,0.0
8651498000,0.010266863228834468,97400.73260073259,2306.0,2049.0,2069.0,2856.0,512.0,-716.0,15588.0,863.0,-346.0,-32.0,-1997.0,-4296.0,-12070.0,32915.0,5522432.0,2281.0,2821.0,0.0
8651754000,0.010266863228834468,97400.73260073259,2320.0,2049.0,2070.0,2855.0,532.0,-704.0,15592.0,878.0,-349.0,-22.0,-1996.0,-4297.0,-12065.0,32915.0,5522432.0,2277.0,2822.0,0.0
8652010000,0.010266863228834468,97400.73260073259,2333.0,2048.0,2069.0,2855.0,496.0,-668.0,15616.0,883.0,-349.0,-25.0,-1995.0,-4304.0,-12064.0,32915.0,5522944.0,2282.0,2823.0,0.0
8652266000,0.010266863228834468,97400.73260073259,2333.0,2047.0,2069.0,2857.0,484.0,-700.0,15604.0,869.0,-362.0,-27.0,-2017.0,-4297.0,-12064.0,32915.0,5522944.0,2277.0,2822.0,0.0
8652522000,0.010266863228834468,97400.73260073259,2332.0,2050.0,2070.0,2856.0,508.0,-736.0,15604.0,885.0,-358.0,-14.0,-2017.0,-4297.0,-12064.0,32915.0,5522688.0,2275.0,2822.0,0.0
8652778000,0.010266863228834468,97400.73260073259,2326.0,2047.0,2069.0,2856.0,540.0,-744.0,15636.0,865.0,-353.0,-31.0,-1991.0,-4302.0,-12070.0,32915.0,5522688.0,2271.0,2819.0,0.0
8653034000,0.010266863228834468,97400.73260073259,2336.0,2049.0,2069.0,2853.0,492.0,-712.0,15624.0,870.0,-355.0,-21.0,-1993.0,-4305.0,-12066.0,32915.0,5522176.0,2279.0,2823.0,0.0
8653290000,0.010266863228834468,97400.73260073259,2348.0,2048.0,2069.0,2855.0,512.0,-692.0,15596.0,897.0,-349.0,-28.0,-2012.0,-4303.0,-12067.0,32915.0,5522176.0,2283.0,2823.0,0.0
8653546000,0.010266863228834468,97400.73260073259,2339.0,2048.0,2070.0,2856.0,548.0,-728.0,15612.0,885.0,-358.0,-21.0,-1995.0,-4301.0,-12068.0,32915.0,5522432.0,2277.0,2821.0,0.0
8653802000,0.010266863228834468,97400.73260073259,2336.0,2048.0,2070.0,2855.0,500.0,-752.0,15592.0,878.0,-354.0,-27.0,-1995.0,-4301.0,-12068.0,32915.0,5522432.0,2275.0,2822.0,0.0
8654058000,0.010267069159178435,97398.77899877899,2330.0,2048.0,2071.0,2857.0,516.0,-736.0,15572.0,852.0,-349.0,-21.0,-1989.0,-4299.0,-12067.0,32915.0,5522432.0,2274.0,2822.0,0.0
8654314000,0.010266863228834468,97400.73260073259,2333.0,2048.0,2070.0,2857.0,536.0,-728.0,15624.0,868.0,-345.0,-32.0,-1994.0,-4299.0,-12069.0,32915.0,5522432.0,2280.0,2823.0,0.0
8654570000,0.010266863228834468,97400.73260073259,2346.0,2049.0,2070.0,2858.0,504.0,-716.0,15640.0,881.0,-366.0,-16.0,-1989.0,-4308.0,-12063.0,32915.0,5521664.0,2283.0,2823.0,0.0
8654826000,0.010266863228834468,97400.73260073259,2339.0,2049.0,2070.0,2859.0,508.0,-756.0,15600.0,885.0,-360.0,-11.0,-1997.0,-4304.0,-12061.0,32915.0,5521664.0,2278.0,2822.0,0.0
8655082000,0.010266863228834468,97400.73260073259,2338.0,2048.0,2068.0,2855.0,500.0,-720.0,15552.0,881.0,-361.0,-23.0,-1997.0,-4304.0,-12061.0,32915.0,5522688.0,2275.0,2822.0,0.0
8655338000,0.010266863228834468,97400.73260073259,2343.0,2048.0,2069.0,2853.0,492.0,-720.0,15572.0,873.0,-352.0,-1.0,-1997.0,-4302.0,-12067.0,32915.0,5522688.0,2281.0,2823.0,0.0
8655594000,0.010266863228834468,97400.73260073259,2337.0,2047.0,2069.0,2855.0,516.0,-740.0,15652.0,879.0,-348.0,-15.0,-1997.0,-4296.0,-12062.0,32915.0,5522432.0,2275.0,2821.0,0.0
8655850000,0.010266863228834468,97400.73260073259,2330.0,2047.0,2069.0,2854.0,500.0,-700.0,15596.0,888.0,-336.0,-32.0,-1992.0,-4302.0,-12059.0,32915.0,5522432.0,2274.0,2822.0,0.0
8656106000,0.010266863228834468,97400.73260073259,2323.0,2048.0,2069.0,2857.0,528.0,-748.0,15576.0,884.0,-349.0,-19.0,-1992.0,-4302.0,-12059.0,32915.0,5521920.0,2273.0,2822.0,0.0
8656362000,0.010266863228834468,97400.73260073259,2306.0,2048.0,2069.0,2856.0,512.0,-708.0,15576.0,884.0,-342.0,-24.0,-1998.0,-4298.0,-12064.0,32915.0,5521920.0,2485.0,2803.0,0.0
8656618000,0.010266863228834468,97400.73260073259,2296.0,2048.0,2069.0,2856.0,520.0,-744.0,15592.0,864.0,-336.0,-22.0,-2017.0,-4302.0,-12064.0,32915.0,5522432.0,2376.0,2823.0,0.0
8656874000,0.010266863228834468,97400.73260073259,2182.0,2047.0,2071.0,2855.0,516.0,-712.0,15604.0,861.0,-350.0,-31.0,-1990.0,-4301.0,-12068.0,32915.0,5522432.0,2320.0,2822.0,0.0
8657130000,0.010266863228834468,97400.73260073259,2284.0,2048.0,2072.0,2857.0,520.0,-736.0,15532.0,879.0,-347.0,-23.0,-1987.0,-4302.0,-12070.0,32915.0,5521408.0,2295.0,2822.0,0.0
8657386000,0.010266863228834468,97400.73260073259,2317.0,2048.0,2068.0,2855.0,516.0,-752.0,15568.0,872.0,-333.0,-43.0,-1987.0,-4302.0,-12070.0,32915.0,5521408.0,2283.0,2822.0,0.0
8657642000,0.010266863228834468,97400.73260073259,2335.0,2047.0,2068.0,2857.0,512.0,-752.0,15596.0,863.0,-336.0,-26.0,-2008.0,-4299.0,-12067.0,32915.0,5522944.0,2284.0,2823.0,0.0
8657898000,0.010266863228834468,97400.73260073259,2310.0,2049.0,2070.0,2855.0,508.0,-720.0,15636.0,852.0,-346.0,-20.0,-1998.0,-4293.0,-12070.0,32915.0,5522944.0,2485.0,2805.0,0.0
8658154000,0.010266863228834468,97400.73260073259,2289.0,2049.0,2069.0,2855.0,472.0,-748.0,15656.0,863.0,-344.0,-18.0,-1993.0,-4299.0,-12067.0,32920.0,5522944.0,2369.0,2822.0,0.0
8658410000,0.010266863228834468,97400.73260073259,2175.0,2048.0,2068.0,2857.0,512.0,-716.0,15580.0,857.0,-337.0,-31.0,-1988.0,-4301.0,-12064.0,32920.0,5522944.0,2317.0,2822.0,0.0
8658666000,0.010266863228834468,97400.73260073259,2248.0,2049.0,2070.0,2857.0,516.0,-720.0,15568.0,872.0,-353.0,-22.0,-1988.0,-4301.0,-12064.0,32920.0,5521920.0,2498.0,2802.0,0.0
8658922000,0.010266863228834468,97400.73260073259,2285.0,2049.0,2068.0,2857.0,500.0,-712.0,15640.0,885.0,-354.0,-28.0,-1998.0,-4302.0,-12064.0,32920.0,5521920.0,2383.0,2823.0,0.0
8659178000,0.010266863228834468,97400.73260073259,2188.0,2048.0,2069.0,2856.0,488.0,-688.0,15644.0,863.0,-330.0,-23.0,-1992.0,-4300.0,-12067.0,32920.0,5521664.0,2323.0,2822.0,0.0
8659434000,0.010266863228834468,97400.73260073259,2299.0,2048.0,2068.0,2854.0,520.0,-700.0,15624.0,863.0,-353.0,-33.0,-1995.0,-4302.0,-12065.0,32920.0,5521664.0,2303.0,2823.0,0.0
8659690000,0.010266863228834468,97400.73260073259,2328.0,2048.0,2069.0,2855.0,500.0,-700.0,15568.0,879.0,-342.0,-37.0,-1995.0,-4302.0,-12065.0,32920.0,5522944.0,2286.0,2821.0,0.0
8659946000,0.010266863228834468,97400.73260073259,2326.0,2049.0,2069.0,2854.0,508.0,-700.0,15560.0,879.0,-342.0,-37.0,-1994.0,-4302.0,-12063.0,32920.0,5522944.0,2276.0,2819.0,0.0
8660202000,0.010266863228834468,97400.73260073259,2337.0,2047.0,2068.0,2856.0,552.0,-696.0,15636.0,876.0,-365.0,-46.0,-2000.0,-4299.0,-12072.0,32920.0,5521920.0,2281.0,2823.0,0.0
8660458000,0.010266863228834468,97400.73260073259,2344.0,2049.0,2070.0,2855.0,480.0,-708.0,15672.0,883.0,-352.0,-18.0,-1995.0,-4297.0,-12066.0,32920.0,5521920.0,2284.0,2823.0,0.0
8660714000,0.010266863228834468,97400.73260073259,2338.0,2048.0,2069.0,2855.0,548.0,-696.0,15584.0,862.0,-348.0,-26.0,-2003.0,-4301.0,-12060.0,32920.0,5521664.0,2278.0,2822.0,0.0
8660970000,0.010266863228834468,97400.73260073259,2324.0,2049.0,2068.0,2856.0,516.0,-744.0,15604.0,879.0,-353.0,-30.0,-2003.0,-4301.0,-12060.0,32920.0,5521664.0,2272.0,2819.0,0.0
8661226000,0.010266863228834468,97400.73260073259,2317.0,2049.0,2070.0,2855.0,512.0,-708.0,15652.0,879.0,-374.0,-33.0,-1996.0,-4305.0,-12063.0,32920.0,5522432.0,2272.0,2821.0,0.0
8661482000,0.010266863228834468,97400.73260073259,2330.0,2048.0,2070.0,2856.0,504.0,-728.0,15640.0,876.0,-330.0,-37.0,-2000.0,-4299.0,-12057.0,32920.0,5522432.0,2279.0,2823.0,0.0
8661738000,0.010266863228834468,97400.73260073259,2327.0,2047.0,2069.0,2854.0,496.0,-712.0,15612.0,876.0,-342.0,-20.0,-1992.0,-4297.0,-12063.0,32920.0,5521664.0,2276.0,2822.0,0.0
8661994000,0.010266863228834468,97400.73260073259,2321.0,2049.0,2068.0,2858.0,516.0,-736.0,15608.0,866.0,-359.0,-15.0,-1993.0,-4303.0,-12059.0,32920.0,5521664.0,2271.0,2819.0,0.0
8662250000,0.010266863228834468,97400.73260073259,2334.0,2050.0,2069.0,2856.0,496.0,-716.0,15592.0,892.0,-343.0,-20.0,-1993.0,-4303.0,-12059.0,32920.0,5522432.0,2279.0,2823.0,0.0
8662506000,0.010266863228834468,97400.73260073259,2347.0,2047.0,2070.0,2858.0,524.0,-736.0,15648.0,865.0,-343.0,-33.0,-1994.0,-4301.0,-12069.0,32920.0,5522432.0,2283.0,2823.0,0.0
8662762000,0.010266863228834468,97400.73260073259,2341.0,2049.0,2069.0,2856.0,532.0,-716.0,15660.0,873.0,-343.0,-19.0,-1999.0,-4297.0,-12065.0,32920.0,5522688.0,2278.0,2822.0,0.0
8663018000,0.010266863228834468,97400.73260073259,2325.0,2048.0,2066.0,2858.0,520.0,-736.0,15616.0,868.0,-358.0,-24.0,-1985.0,-4300.0,-12070.0,32920.0,5522688.0,2267.0,2820.0,0.0
8663274000,0.010266863228834468,97400.73260073259,2314.0,2049.0,2069.0,2854.0,536.0,-712.0,15588.0,874.0,-347.0,-8.0,-1986.0,-4299.0,-12063.0,32920.0,5522688.0,2270.0,2822.0,0.0
8663530000,0.010266863228834468,97400.73260073259,2330.0,2047.0,2070.0,2854.0,532.0,-700.0,15552.0,871.0,-372.0,-35.0,-1986.0,-4299.0,-12063.0,32920.0,5522688.0,2279.0,2823.0,0.0
8663786000,0.010266863228834468,97400.73260073259,2327.0,2048.0,2069.0,2855.0,516.0,-708.0,15616.0,850.0,-351.0,-46.0,-1990.0,-4301.0,-12065.0,32920.0,5521408.0,2276.0,2822.0,0.0
8664042000,0.010266863228834468,97400.73260073259,2337.0,2048.0,2067.0,2856.0,548.0,-732.0,15688.0,866.0,-355.0,-24.0,-2000.0,-4300.0,-12069.0,32920.0,5521408.0,2281.0,2823.0,0.0
8664298000,0.010266863228834468,97400.73260073259,2336.0,2047.0,2069.0,2857.0,536.0,-760.0,15628.0,868.0,-346.0,-32.0,-1998.0,-4302.0,-12065.0,32920.0,5521920.0,2277.0,2822.0,0.0
8664554000,0.010266863228834468,97400.73260073259,2332.0,2047.0,2070.0,2856.0,524.0,-736.0,15588.0,865.0,-368.0,-30.0,-1998.0,-4302.0,-12065.0,32920.0,5521920.0,2275.0,2822.0,0.0
8664810000,0.010266863228834468,97400.73260073259,2328.0,2049.0,2069.0,2855.0,548.0,-728.0,15632.0,890.0,-360.0,-24.0,-1999.0,-4303.0,-12061.0,32920.0,5522688.0,2274.0,2822.0,0.0
8665066000,0.010266863228834468,97400.73260073259,2333.0,2049.0,2070.0,2858.0,540.0,-716.0,15592.0,873.0,-333.0,-4.0,-1997.0,-4302.0,-12066.0,32920.0,5522688.0,2280.0,2823.0,0.0
8665322000,0.010266863228834468,97400.73260073259,2345.0,2048.0,2070.0,2856.0,524.0,-736.0,15652.0,873.0,-325.0,-14.0,-1995.0,-4302.0,-12065.0,32920.0,5521408.0,2283.0,2823.0,0.0
8665578000,0.010266863228834468,97400.73260073259,2341.0,2047.0,2071.0,2856.0,548.0,-704.0,15616.0,886.0,-337.0,-30.0,-1995.0,-4305.0,-12069.0,32920.0,5521408.0,2278.0,2822.0,0.0
8665834000,0.010266863228834468,97400.73260073259,2330.0,2049.0,2070.0,2854.0,540.0,-704.0,15568.0,860.0,-337.0,-6.0,-1995.0,-4305.0,-12069.0,32920.0,5521920.0,2274.0,2821.0,0.0
8666090000,0.010266863228834468,97400.73260073259,2313.0,2047.0,2068.0,2856.0,536.0,-708.0,15640.0,879.0,-340.0,-43.0,-1995.0,-4303.0,-12067.0,32920.0,5521920.0,2265.0,2820.0,0.0
8666346000,0.010266863228834468,97400.73260073259,2311.0,2047.0,2069.0,2857.0,564.0,-744.0,15612.0,884.0,-330.0,-21.0,-1993.0,-4303.0,-12066.0,32920.0,5522176.0,2270.0,2822.0,0.0
8666602000,0.010266863228834468,97400.73260073259,2326.0,2050.0,2070.0,2857.0,516.0,-744.0,15596.0,880.0,-341.0,-23.0,-1994.0,-4295.0,-12065.0,32920.0,5522176.0,2279.0,2823.0,0.0
8666858000,0.010266863228834468,97400.73260073259,2328.0,2049.0,2069.0,2855.0,528.0,-716.0,15616.0,894.0,-372.0,-11.0,-1990.0,-4299.0,-12062.0,32920.0,5521664.0,2275.0,2821.0,0.0
8667114000,0.010266863228834468,97400.73260073259,2324.0,2050.0,2069.0,2856.0,540.0,-728.0,15608.0,874.0,-348.0,-15.0,-1990.0,-4299.0,-12062.0,32920.0,5521664.0,2274.0,2822.0,0.0
8667370000,0.010266863228834468,97400.73260073259,2331.0,2047.0,2069.0,2855.0,500.0,-724.0,15636.0,882.0,-343.0,-48.0,-1991.0,-4302.0,-12068.0,32920.0,5521408.0,2280.0,2823.0,0.0
8667626000,0.010266863228834468,97400.73260073259,2346.0,2048.0,2070.0,2856.0,544.0,-736.0,15596.0,868.0,-352.0,-23.0,-1988.0,-4301.0,-12064.0,32920.0,5521408.0,2283.0,2823.0,0.0
8667882000,0.010267069159178435,97398.77899877899,2334.0,2048.0,2069.0,2858.0,532.0,-680.0,15624.0,886.0,-354.0,-18.0,-1998.0,-4301.0,-12064.0,32920.0,5522432.0,2276.0,2821.0,0.0
8668138000,0.010266863228834468,97400.73260073259,2332.0,2048.0,2070.0,2858.0,524.0,-724.0,15616.0,888.0,-351.0,-22.0,-1987.0,-4298.0,-12066.0,32920.0,5522432.0,2275.0,2822.0,0.0
8668394000,0.010266863228834468,97400.73260073259,2327.0,2048.0,2069.0,2856.0,528.0,-740.0,15624.0,875.0,-345.0,-44.0,-1987.0,-4298.0,-12066.0,32920.0,5522688.0,2274.0,2822.0,0.0
8668650000,0.010266863228834468,97400.73260073259,2306.0,2048.0,2068.0,2855.0,556.0,-752.0,15652.0,883.0,-365.0,-46.0,-1997.0,-4303.0,-12064.0,32920.0,5522688.0,2485.0,2803.0,0.0
8668906000,0.010266863228834468,97400.73260073259,2284.0,2048.0,2071.0,2855.0,524.0,-716.0,15636.0,891.0,-345.0,-26.0,-1991.0,-4301.0,-12070.0,32920.0,5522688.0,2368.0,2821.0,0.0
8669162000,0.010266863228834468,97400.73260073259,2166.0,2049.0,2069.0,2855.0,508.0,-708.0,15624.0,866.0,-332.0,-24.0,-2001.0,-4306.0,-12063.0,32920.0,5522688.0,2316.0,2822.0,0.0
8669418000,0.010266863228834468,97400.73260073259,2268.0,2047.0,2070.0,2857.0,520.0,-720.0,15580.0,870.0,-359.0,-13.0,-2001.0,-4306.0,-12063.0,32920.0,5522432.0,2291.0,2821.0,0.0
8669674000,0.010266863228834468,97400.73260073259,2319.0,2048.0,2069.0,2856.0,540.0,-712.0,15616.0,865.0,-343.0,-30.0,-1997.0,-4303.0,-12067.0,32920.0,5522432.0,2289.0,2823.0,0.0
8669930000,0.010266863228834468,97400.73260073259,2327.0,2049.0,2069.0,2853.0,516.0,-748.0,15576.0,858.0,-339.0,-22.0,-1997.0,-4304.0,-12065.0,32920.0,5521664.0,2280.0,2822.0,0.0
8670186000,0.010266863228834468,97400.73260073259,2344.0,2048.0,2069.0,2857.0,508.0,-732.0,15668.0,874.0,-361.0,-29.0,-2001.0,-4296.0,-12066.0,32920.0,5521664.0,2283.0,2823.0,0.0
8670442000,0.010266863228834468,97400.73260073259,2338.0,2048.0,2069.0,2854.0,556.0,-708.0,15584.0,869.0,-343.0,-27.0,-2006.0,-4298.0,-12065.0,32920.0,5521408.0,2278.0,2822.0,0.0
8670698000,0.010266863228834468,97400.73260073259,2335.0,2049.0,2067.0,2855.0,548.0,-720.0,15636.0,879.0,-335.0,-25.0,-2006.0,-4298.0,-12065.0,32920.0,5521408.0,2275.0,2822.0,0.0
8670954000,0.010266863228834468,97400.73260073259,2330.0,2048.0,2069.0,2856.0,536.0,-724.0,15660.0,860.0,-326.0,-23.0,-1993.0,-4304.0,-12068.0,32920.0,5521408.0,2274.0,2822.0,0.0
8671210000,0.010266863228834468,97400.73260073259,2312.0,2047.0,2069.0,2857.0,532.0,-716.0,15648.0,880.0,-342.0,-21.0,-1986.0,-4304.0,-12065.0,32920.0,5521408.0,2266.0,2820.0,0.0
8671466000,0.010266863228834468,97400.73260073259,2310.0,2048.0,2069.0,2856.0,504.0,-716.0,15620.0,888.0,-347.0,-26.0,-1989.0,-4302.0,-12064.0,32920.0,5521920.0,2270.0,2822.0,0.0
8671722000,0.010266863228834468,97400.73260073259,2307.0,2049.0,2067.0,2857.0,536.0,-720.0,15628.0,871.0,-336.0,-38.0,-1992.0,-4298.0,-12063.0,32920.0,5521920.0,2272.0,2822.0,0.0
8671978000,0.010266863228834468,97400.73260073259,2313.0,2049.0,2069.0,2856.0,520.0,-732.0,15616.0,854.0,-337.0,-21.0,-1992.0,-4298.0,-12063.0,32920.0,5522688.0,2273.0,2822.0,0.0
8672234000,0.010266863228834468,97400.73260073259,2312.0,2049.0,2069.0,2856.0,500.0,-692.0,15616.0,858.0,-339.0,-18.0,-1985.0,-4304.0,-12066.0,32920.0,5522688.0,2272.0,2821.0,0.0
8672490000,0.010266863228834468,97400.73260073259,2326.0,2047.0,2071.0,2855.0,520.0,-728.0,15596.0,877.0,-338.0,-37.0,-1990.0,-4293.0,-12065.0,32920.0,5522432.0,2279.0,2823.0,0.0
8672746000,0.010266863228834468,97400.73260073259,2325.0,2049.0,2067.0,2856.0,568.0,-752.0,15656.0,883.0,-354.0,-31.0,-1993.0,-4297.0,-12063.0,32920.0,5522432.0,2276.0,2822.0,0.0
8673002000,0.010266863228834468,97400.73260073259,2320.0,2047.0,2069.0,2856.0,520.0,-728.0,15604.0,869.0,-337.0,-13.0,-1993.0,-4297.0,-12063.0,32920.0,5522432.0,2273.0,2821.0,0.0
8673258000,0.010266863228834468,97400.73260073259,2308.0,2047.0,2069.0,2855.0,536.0,-708.0,15624.0,872.0,-365.0,-39.0,-1986.0,-4300.0,-12063.0,32920.0,5522432.0,2265.0,2820.0,0.0
8673514000,0.010266863228834468,97400.73260073259,2308.0,2048.0,2070.0,2853.0,532.0,-760.0,15600.0,879.0,-369.0,-34.0,-1993.0,-4292.0,-12061.0,32920.0,5522944.0,2270.0,2822.0,0.0
8673770000,0.010266863228834468,97400.73260073259,2307.0,2047.0,2071.0,2854.0,496.0,-732.0,15648.0,863.0,-370.0,-20.0,-1997.0,-4305.0,-12064.0,32920.0,5522944.0,2270.0,2821.0,0.0
8674026000,0.010266863228834468,97400.73260073259,2312.0,2049.0,2069.0,2854.0,484.0,-716.0,15628.0,850.0,-351.0,-26.0,-2001.0,-4300.0,-12066.0,32920.0,5522432.0,2271.0,2822.0,0.0
8674282000,0.010266863228834468,97400.73260073259,2296.0,2048.0,2069.0,2855.0,536.0,-716.0,15600.0,885.0,-338.0,-10.0,-2001.0,-4300.0,-12066.0,32920.0,5522432.0,2264.0,2820.0,0.0
8674538000,0.010266863228834468,97400.73260073259,2301.0,2049.0,2069.0,2855.0,556.0,-744.0,15632.0,891.0,-355.0,-27.0,-1995.0,-4298.0,-12067.0,32920.0,5522432.0,2269.0,2822.0,0.0
8674794000,0.010266863228834468,97400.73260073259,2318.0,2048.0,2069.0,2856.0,476.0,-684.0,15644.0,870.0,-347.0,-10.0,-2000.0,-4298.0,-12067.0,32920.0,5522432.0,2278.0,2823.0,0.0
8675050000,0.010266863228834468,97400.73260073259,2318.0,2047.0,2069.0,2857.0,516.0,-732.0,15600.0,857.0,-340.0,-15.0,-1995.0,-4298.0,-12066.0,32920.0,5521408.0,2276.0,2822.0,0.0
8675306000,0.010266863228834468,97400.73260073259,2318.0,2048.0,2069.0,2858.0,556.0,-732.0,15608.0,864.0,-363.0,-20.0,-1994.0,-4298.0,-12063.0,32920.0,5521408.0,2274.0,2822.0,0.0
8675562000,0.010266863228834468,97400.73260073259,2320.0,2048.0,2069.0,2856.0,540.0,-724.0,15588.0,883.0,-334.0,-18.0,-1994.0,-4298.0,-12063.0,32920.0,5521408.0,2274.0,2822.0,0.0
8675818000,0.010266863228834468,97400.73260073259,2328.0,2047.0,2069.0,2858.0,516.0,-740.0,15592.0,864.0,-343.0,-27.0,-2000.0,-4300.0,-12062.0,32920.0,5521408.0,2280.0,2823.0,0.0
8676074000,0.010266863228834468,97400.73260073259,2326.0,2047.0,2069.0,2854.0,500.0,-748.0,15640.0,873.0,-366.0,-27.0,-1986.0,-4302.0,-12066.0,32920.0,5522688.0,2276.0,2822.0,0.0
8676330000,0.010266863228834468,97400.73260073259,2328.0,2049.0,2067.0,2858.0,496.0,-704.0,15664.0,889.0,-332.0,-22.0,-1997.0,-4303.0,-12069.0,32920.0,5522688.0,2275.0,2822.0,0.0
8676586000,0.010266863228834468,97400.73260073259,2323.0,2047.0,2068.0,2855.0,544.0,-704.0,15612.0,865.0,-356.0,-5.0,-1986.0,-4303.0,-12063.0,32920.0,5522688.0,2273.0,2821.0,0.0
8676842000,0.010266863228834468,97400.73260073259,2331.0,2047.0,2068.0,2857.0,496.0,-716.0,15596.0,865.0,-356.0,-5.0,-1986.0,-4303.0,-12063.0,32920.0,5522688.0,2280.0,2823.0,0.0
8677098000,0.010266863228834468,97400.73260073259,2327.0,2048.0,2070.0,2857.0,492.0,-732.0,15612.0,876.0,-355.0,-19.0,-1989.0,-4300.0,-12070.0,32920.0,5522688.0,2276.0,2822.0,0.0
8677354000,0.010266863228834468,97400.73260073259,2338.0,2048.0,2067.0,2855.0,496.0,-716.0,15620.0,878.0,-327.0,-17.0,-1991.0,-4300.0,-12065.0,32920.0,5522688.0,2281.0,2823.0,0.0
8677610000,0.010266863228834468,97400.73260073259,2335.0,2050.0,2069.0,2856.0,516.0,-692.0,15664.0,865.0,-347.0,-22.0,-1997.0,-4300.0,-12062.0,32920.0,5521664.0,2277.0,2822.0,0.0
8677866000,0.010266863228834468,97400.73260073259,2331.0,2048.0,2070.0,2854.0,516.0,-720.0,15580.0,858.0,-337.0,-22.0,-1997.0,-4300.0,-12062.0,32920.0,5521664.0,2275.0,2822.0,0.0
8678122000,0.010266863228834468,97400.73260073259,2329.0,2048.0,2068.0,2856.0,504.0,-700.0,15608.0,888.0,-341.0,-15.0,-1996.0,-4298.0,-12065.0,32920.0,5522432.0,2274.0,2822.0,0.0
8678378000,0.010266863228834468,97400.73260073259,2318.0,2047.0,2067.0,2856.0,532.0,-716.0,15636.0,893.0,-346.0,-34.0,-1995.0,-4301.0,-12069.0,32920.0,5522432.0,2272.0,2821.0,0.0
8678634000,0.010266863228834468,97400.73260073259,2314.0,2047.0,2069.0,2856.0,452.0,-704.0,15616.0,874.0,-349.0,-24.0,-1996.0,-4292.0,-12066.0,32920.0,5522432.0,2272.0,2822.0,0.0
8678890000,0.010266863228834468,97400.73260073259,2315.0,2049.0,2069.0,2856.0,504.0,-692.0,15568.0,876.0,-337.0,-46.0,-1995.0,-4301.0,-12068.0,32920.0,5522432.0,2273.0,2822.0,0.0
8679146000,0.010266863228834468,97400.73260073259,2310.0,2048.0,2068.0,2857.0,516.0,-712.0,15608.0,869.0,-362.0,-44.0,-1995.0,-4301.0,-12068.0,32920.0,5522432.0,2272.0,2821.0,0.0
8679402000,0.010266863228834468,97400.73260073259,2316.0,2048.0,2067.0,2856.0,536.0,-740.0,15584.0,878.0,-350.0,-33.0,-1993.0,-4303.0,-12061.0,32920.0,5522432.0,2271.0,2821.0,0.0
8679658000,0.010266863228834468,97400.73260073259,2311.0,2048.0,2069.0,2854.0,512.0,-712.0,15620.0,895.0,-351.0,-12.0,-1992.0,-4294.0,-12064.0,32920.0,5522688.0,2272.0,2822.0,0.0
8679914000,0.010266863228834468,97400.73260073259,2323.0,2048.0,2068.0,2854.0,508.0,-664.0,15636.0,867.0,-361.0,-20.0,-1994.0,-4299.0,-12063.0,32920.0,5522688.0,2280.0,2823.0,0.0
8680170000,0.010266863228834468,97400.73260073259,2325.0,2048.0,2070.0,2856.0,536.0,-708.0,15572.0,876.0,-330.0,-31.0,-1994.0,-4299.0,-12066.0,32920.0,5521664.0,2275.0,2821.0,0.0
8680426000,0.010266863228834468,97400.73260073259,2323.0,2048.0,2068.0,2855.0,504.0,-732.0,15604.0,877.0,-341.0,-2.0,-1994.0,-4299.0,-12066.0,32920.0,5521664.0,2274.0,2822.0,0.0
8680682000,0.010266863228834468,97400.73260073259,2332.0,2047.0,2069.0,2856.0,504.0,-700.0,15644.0,886.0,-344.0,-39.0,-1994.0,-4300.0,-12060.0,32920.0,5522432.0,2280.0,2823.0,0.0
8680938000,0.010266863228834468,97400.73260073259,2344.0,2048.0,2068.0,2855.0,536.0,-720.0,15600.0,871.0,-336.0,-22.0,-1990.0,-4299.0,-12060.0,32920.0,5522432.0,2283.0,2823.0,0.0
8681194000,0.010266863228834468,97400.73260073259,2339.0,2048.0,2069.0,2854.0,508.0,-728.0,15564.0,864.0,-362.0,-40.0,-1996.0,-4295.0,-12063.0,32920.0,5521408.0,2277.0,2821.0,0.0
8681450000,0.010266863228834468,97400.73260073259,2335.0,2047.0,2068.0,2854.0,532.0,-704.0,15564.0,857.0,-357.0,-34.0,-1996.0,-4295.0,-12063.0,32920.0,5521408.0,2275.0,2822.0,0.0
8681706000,0.010266863228834468,97400.73260073259,2336.0,2047.0,2070.0,2854.0,516.0,-740.0,15532.0,886.0,-338.0,-10.0,-1991.0,-4301.0,-12062.0,32920.0,5521408.0,2280.0,2823.0,0.0
8681962000,0.010266863228834468,97400.73260073259,2345.0,2047.0,2070.0,2856.0,492.0,-736.0,15596.0,859.0,-337.0,-18.0,-1984.0,-4304.0,-12068.0,32920.0,5521408.0,2284.0,2823.0,0.0
8682218000,0.010266863228834468,97400.73260073259,2339.0,2048.0,2068.0,2855.0,524.0,-776.0,15628.0,858.0,-349.0,-12.0,-1997.0,-4301.0,-12061.0,32920.0,5521920.0,2278.0,2822.0,0.0
8682474000,0.010266863228834468,97400.73260073259,2336.0,2048.0,2069.0,2857.0,512.0,-700.0,15612.0,861.0,-346.0,-37.0,-1993.0,-4301.0,-12062.0,32920.0,5521920.0,2275.0,2822.0,0.0
8682730000,0.010266863228834468,97400.73260073259,2328.0,2048.0,2069.0,2856.0,508.0,-736.0,15572.0,886.0,-336.0,-21.0,-1993.0,-4301.0,-12062.0,32920.0,5522176.0,2274.0,2822.0,0.0
8682986000,0.010266863228834468,97400.73260073259,2333.0,2049.0,2068.0,2856.0,480.0,-728.0,15648.0,863.0,-370.0,-37.0,-1993.0,-4296.0,-12058.0,32920.0,5522176.0,2280.0,2823.0,0.0
8683242000,0.010266863228834468,97400.73260073259,2329.0,2048.0,2066.0,2855.0,512.0,-704.0,15620.0,879.0,-333.0,-26.0,-1994.0,-4301.0,-12063.0,32920.0,5522688.0,2276.0,2822.0,0.0
8683498000,0.010266863228834468,97400.73260073259,2324.0,2048.0,2067.0,2856.0,484.0,-704.0,15624.0,871.0,-332.0,-49.0,-1998.0,-4304.0,-12059.0,32920.0,5522688.0,2274.0,2821.0,0.0
8683754000,0.010266863228834468,97400.73260073259,2321.0,2048.0,2068.0,2856.0,524.0,-724.0,15640.0,876.0,-358.0,-23.0,-2014.0,-4297.0,-12065.0,32920.0,5521408.0,2273.0,2822.0,0.0
8684010000,0.010266863228834468,97400.73260073259,2320.0,2049.0,2071.0,2856.0,516.0,-720.0,15568.0,869.0,-357.0,-31.0,-2014.0,-4297.0,-12065.0,32920.0,5521408.0,2273.0,2822.0,0.0
8684266000,0.010266863228834468,97400.73260073259,2320.0,2048.0,2067.0,2855.0,492.0,-704.0,15612.0,880.0,-347.0,-18.0,-1998.0,-4305.0,-12070.0,32920.0,5522944.0,2273.0,2822.0,0.0
8684522000,0.010266863228834468,97400.73260073259,2328.0,2047.0,2071.0,2856.0,472.0,-704.0,15624.0,869.0,-351.0,-35.0,-1998.0,-4298.0,-12064.0,32920.0,5522944.0,2280.0,2823.0,0.0
8684778000,0.010266863228834468,97400.73260073259,2343.0,2049.0,2068.0,2854.0,492.0,-704.0,15576.0,885.0,-336.0,-22.0,-1989.0,-4306.0,-12064.0,32920.0,5522688.0,2283.0,2823.0,0.0
8685034000,0.010266863228834468,97400.73260073259,2338.0,2049.0,2069.0,2855.0,484.0,-676.0,15604.0,892.0,-354.0,-18.0,-2017.0,-4297.0,-12063.0,32920.0,5522688.0,2278.0,2822.0,0.0
8685290000,0.010266863228834468,97400.73260073259,2337.0,2048.0,2069.0,2854.0,524.0,-700.0,15580.0,863.0,-347.0,-45.0,-2017.0,-4297.0,-12063.0,32920.0,5522688.0,2275.0,2822.0,0.0
8685546000,0.010266863228834468,97400.73260073259,2342.0,2049.0,2070.0,2856.0,520.0,-684.0,15644.0,891.0,-333.0,-41.0,-1988.0,-4302.0,-12063.0,32920.0,5522688.0,2281.0,2823.0,0.0
8685802000,0.010266863228834468,97400.73260073259,2352.0,2049.0,2069.0,2856.0,516.0,-712.0,15612.0,870.0,-365.0,-27.0,-1991.0,-4301.0,-12063.0,32920.0,5522688.0,2283.0,2823.0,0.0
8686058000,0.010266863228834468,97400.73260073259,2344.0,2047.0,2070.0,2858.0,520.0,-704.0,15576.0,882.0,-367.0,-30.0,-1989.0,-4302.0,-12060.0,32920.0,5522688.0,2278.0,2822.0,0.0
8686314000,0.010266863228834468,97400.73260073259,2336.0,2047.0,2069.0,2856.0,520.0,-720.0,15532.0,872.0,-349.0,-27.0,-1989.0,-4302.0,-12060.0,32920.0,5522688.0,2275.0,2822.0,0.0
8686570000,0.010266863228834468,97400.73260073259,2331.0,2049.0,2068.0,2856.0,496.0,-708.0,15668.0,897.0,-344.0,-19.0,-1991.0,-4294.0,-12068.0,32920.0,5522688.0,2274.0,2822.0,0.0
8686826000,0.010266863228834468,97400.73260073259,2334.0,2048.0,2068.0,2855.0,508.0,-692.0,15636.0,851.0,-366.0,-17.0,-1991.0,-4294.0,-12070.0,32920.0,5521664.0,2280.0,2823.0,0.0
8687082000,0.010266863228834468,97400.73260073259,2347.0,2048.0,2071.0,2857.0,496.0,-688.0,15588.0,863.0,-346.0,-8.0,-1985.0,-4302.0,-12061.0,32920.0,5521664.0,2283.0,2823.0,0.0
8687338000,0.010266863228834468,97400.73260073259,2341.0,2047.0,2072.0,2855.0,512.0,-728.0,15592.0,863.0,-351.0,-28.0,-1988.0,-4300.0,-12064.0,32920.0,5522432.0,2278.0,2822.0,0.0
8687594000,0.010266863228834468,97400.73260073259,2322.0,2047.0,2070.0,2856.0,488.0,-692.0,15608.0,867.0,-337.0,-14.0,-1988.0,-4300.0,-12064.0,32920.0,5522432.0,2267.0,2820.0,0.0
8687850000,0.010267069159178435,97398.77899877899,2318.0,2049.0,2069.0,2858.0,516.0,-684.0,15592.0,870.0,-349.0,-23.0,-1996.0,-4300.0,-12061.0,32920.0,5522688.0,2270.0,2822.0,0.0
8688106000,0.010266863228834468,97400.73260073259,2330.0,2047.0,2069.0,2858.0,504.0,-716.0,15640.0,869.0,-341.0,-32.0,-1989.0,-4298.0,-12060.0,32920.0,5522688.0,2279.0,2823.0,0.0
8688362000,0.010266863228834468,97400.73260073259,2325.0,2048.0,2068.0,2854.0,464.0,-732.0,15600.0,881.0,-342.0,-33.0,-1997.0,-4303.0,-12058.0,32920.0,5522688.0,2274.0,2821.0,0.0
8688618000,0.010266863228834468,97400.73260073259,2323.0,2047.0,2069.0,2856.0,500.0,-720.0,15600.0,874.0,-339.0,-12.0,-1994.0,-4299.0,-12062.0,32920.0,5522688.0,2274.0,2822.0,0.0
8688874000,0.010266863228834468,97400.73260073259,2328.0,2048.0,2070.0,2856.0,524.0,-728.0,15612.0,893.0,-327.0,-27.0,-1994.0,-4299.0,-12062.0,32920.0,5522688.0,2280.0,2823.0,0.0
8689130000,0.010266863228834468,97400.73260073259,2346.0,2048.0,2069.0,2855.0,476.0,-708.0,15604.0,866.0,-348.0,-30.0,-1995.0,-4299.0,-12066.0,32920.0,5522688.0,2283.0,2823.0,0.0
8689386000,0.010266863228834468,97400.73260073259,2340.0,2048.0,2071.0,2855.0,472.0,-708.0,15612.0,875.0,-334.0,-11.0,-1990.0,-4297.0,-12065.0,32920.0,5522688.0,2278.0,2822.0,0.0
8689642000,0.010266863228834468,97400.73260073259,2336.0,2048.0,2068.0,2854.0,480.0,-700.0,15576.0,868.0,-352.0,-44.0,-1993.0,-4294.0,-12065.0,32920.0,5522688.0,2275.0,2822.0,0.0
8689898000,0.010266863228834468,97400.73260073259,2329.0,2048.0,2068.0,2855.0,476.0,-704.0,15608.0,876.0,-335.0,-39.0,-1993.0,-4294.0,-12065.0,32920.0,5522432.0,2274.0,2822.0,0.0
8690154000,0.010266863228834468,97400.73260073259,2333.0,2049.0,2070.0,2855.0,472.0,-712.0,15600.0,864.0,-342.0,-29.0,-1987.0,-4308.0,-12062.0,32920.0,5522432.0,2280.0,2823.0,0.0
8690410000,0.010266863228834468,97400.73260073259,2329.0,2048.0,2070.0,2858.0,496.0,-688.0,15596.0,883.0,-344.0,-38.0,-1991.0,-4298.0,-12062.0,32920.0,5523200.0,2276.0,2822.0,0.0
8690666000,0.010266863228834468,97400.73260073259,2346.0,2048.0,2068.0,2854.0,484.0,-712.0,15624.0,876.0,-360.0,-17.0,-1989.0,-4298.0,-12069.0,32920.0,5523200.0,2288.0,2823.0,0.0
8690922000,0.010266863228834468,97400.73260073259,2341.0,2048.0,2069.0,2858.0,512.0,-736.0,15616.0,859.0,-339.0,-28.0,-1984.0,-4298.0,-12070.0,32920.0,5522432.0,2280.0,2822.0,0.0
8691178000,0.010266863228834468,97400.73260073259,2332.0,2048.0,2068.0,2856.0,488.0,-716.0,15612.0,874.0,-346.0,-4.0,-1984.0,-4298.0,-12070.0,32920.0,5522432.0,2276.0,2822.0,0.0
8691434000,0.010266863228834468,97400.73260073259,2333.0,2048.0,2069.0,2855.0,492.0,-716.0,15592.0,883.0,-338.0,-28.0,-1994.0,-4301.0,-12062.0,32920.0,5522688.0,2275.0,2822.0,0.0
8691690000,0.010266863228834468,97400.73260073259,2340.0,2048.0,2067.0,2855.0,512.0,-672.0,15584.0,887.0,-359.0,-34.0,-1990.0,-4295.0,-12063.0,32920.0,5522688.0,2281.0,2823.0,0.0
8691946000,0.010266863228834468,97400.73260073259,2332.0,2047.0,2070.0,2855.0,504.0,-692.0,15628.0,880.0,-335.0,-6.0,-1998.0,-4298.0,-12064.0,32920.0,5522688.0,2276.0,2822.0,0.0
8692202000,0.010266863228834468,97400.73260073259,2330.0,2049.0,2070.0,2856.0,504.0,-692.0,15608.0,862.0,-336.0,-28.0,-2000.0,-4301.0,-12066.0,32920.0,5522688.0,2275.0,2822.0,0.0
8692458000,0.010266863228834468,97400.73260073259,2325.0,2048.0,2069.0,2858.0,504.0,-688.0,15616.0,881.0,-362.0,-21.0,-2000.0,-4301.0,-12066.0,32920.0,5522688.0,2273.0,2821.0,0.0
8692714000,0.010266863228834468,97400.73260073259,2331.0,2048.0,2068.0,2856.0,496.0,-716.0,15584.0,879.0,-346.0,-30.0,-1989.0,-4295.0,-12064.0,32920.0,5522688.0,2280.0,2823.0,0.0
8692970000,0.010266863228834468,97400.73260073259,2327.0,2049.0,2068.0,2856.0,492.0,-716.0,15620.0,880.0,-352.0,-30.0,-1995.0,-4295.0,-12064.0,32920.0,5521664.0,2276.0,2822.0,0.0
8693226000,0.010266863228834468,97400.73260073259,2330.0,2047.0,2069.0,2855.0,516.0,-712.0,15600.0,883.0,-358.0,-21.0,-1994.0,-4304.0,-12059.0,32920.0,5521664.0,2275.0,2822.0,0.0
8693482000,0.010266863228834468,97400.73260073259,2317.0,2048.0,2068.0,2856.0,480.0,-664.0,15604.0,881.0,-331.0,-28.0,-1999.0,-4299.0,-12061.0,32920.0,5521408.0,2272.0,2821.0,0.0
8693738000,0.010266863228834468,97400.73260073259,2314.0,2048.0,2067.0,2856.0,480.0,-696.0,15580.0,881.0,-331.0,-28.0,-1999.0,-4299.0,-12061.0,32920.0,5521408.0,2272.0,2821.0,0.0
8693994000,0.010266863228834468,97400.73260073259,2311.0,2049.0,2070.0,2853.0,484.0,-764.0,15580.0,890.0,-343.0,-35.0,-1992.0,-4299.0,-12064.0,32920.0,5522432.0,2272.0,2822.0,0.0
8694250000,0.010266863228834468,97400.73260073259,2315.0,2049.0,2069.0,2857.0,452.0,-740.0,15660.0,869.0,-342.0,-6.0,-1995.0,-4297.0,-12062.0,32920.0,5522432.0,2273.0,2822.0,0.0
8694506000,0.010267069159178435,97398.77899877899,2317.0,2051.0,2069.0,2859.0,536.0,-704.0,15604.0,871.0,-351.0,-30.0,-1993.0,-4303.0,-12063.0,32920.0,5522944.0,2273.0,2822.0,0.0
8694762000,0.010266863228834468,97400.73260073259,2310.0,2050.0,2069.0,2856.0,496.0,-688.0,15576.0,865.0,-361.0,-30.0,-1993.0,-4303.0,-12063.0,32920.0,5522944.0,2272.0,2821.0,0.0
8695018000,0.010266863228834468,97400.73260073259,2311.0,2048.0,2070.0,2855.0,496.0,-712.0,15600.0,894.0,-370.0,-27.0,-1991.0,-4297.0,-12065.0,32920.0,5521664.0,2272.0,2822.0,0.0
8695274000,0.010266863228834468,97400.73260073259,2323.0,2047.0,2071.0,2857.0,500.0,-740.0,15616.0,870.0,-359.0,-33.0,-1990.0,-4297.0,-12064.0,32920.0,5521664.0,2280.0,2823.0,0.0
8695530000,0.010266863228834468,97400.73260073259,2326.0,2049.0,2069.0,2855.0,520.0,-712.0,15660.0,871.0,-366.0,-19.0,-1991.0,-4299.0,-12061.0,32920.0,5522688.0,2275.0,2821.0,0.0
8695786000,0.010266863228834468,97400.73260073259,2324.0,2047.0,2070.0,2858.0,548.0,-704.0,15608.0,867.0,-346.0,-16.0,-1988.0,-4295.0,-12068.0,32920.0,5522688.0,2274.0,2822.0,0.0
8696042000,0.010266863228834468,97400.73260073259,2321.0,2048.0,2068.0,2855.0,484.0,-756.0,15584.0,881.0,-358.0,-8.0,-1988.0,-4295.0,-12068.0,32920.0,5522432.0,2274.0,2822.0,0.0
8696298000,0.010266863228834468,97400.73260073259,2330.0,2049.0,2069.0,2856.0,532.0,-716.0,15556.0,873.0,-350.0,-29.0,-1993.0,-4300.0,-12063.0,32920.0,5522432.0,2280.0,2823.0,0.0
8696554000,0.010266863228834468,97400.73260073259,2331.0,2048.0,2070.0,2856.0,508.0,-696.0,15648.0,869.0,-338.0,-25.0,-1991.0,-4307.0,-12068.0,32920.0,5522944.0,2277.0,2822.0,0.0
8696810000,0.010266863228834468,97400.73260073259,2331.0,2048.0,2069.0,2856.0,496.0,-724.0,15644.0,873.0,-353.0,-50.0,-2002.0,-4300.0,-12068.0,32920.0,5522944.0,2275.0,2822.0,0.0
8697066000,0.010266863228834468,97400.73260073259,2325.0,2047.0,2069.0,2858.0,496.0,-748.0,15584.0,864.0,-323.0,-25.0,-1989.0,-4297.0,-12064.0,32920.0,5522688.0,2273.0,2821.0,0.0
8697322000,0.010266863228834468,97400.73260073259,2321.0,2050.0,2068.0,2855.0,520.0,-740.0,15572.0,883.0,-352.0,-30.0,-1989.0,-4297.0,-12064.0,32920.0,5522688.0,2273.0,2822.0,0.0
8697578000,0.010266863228834468,97400.73260073259,2322.0,2049.0,2070.0,2856.0,532.0,-748.0,15592.0,865.0,-339.0,-18.0,-1996.0,-4295.0,-12066.0,32920.0,5522944.0,2273.0,2822.0,0.0
8697834000,0.010267069159178435,97398.77899877899,2316.0,2047.0,2070.0,2855.0,464.0,-720.0,15612.0,871.0,-328.0,-25.0,-2001.0,-4300.0,-12064.0,32920.0,5522944.0,2272.0,2821.0,0.0
8698090000,0.010266863228834468,97400.73260073259,2316.0,2048.0,2070.0,2854.0,500.0,-716.0,15664.0,868.0,-336.0,-36.0,-1996.0,-4302.0,-12068.0,32920.0,5522432.0,2273.0,2822.0,0.0
8698346000,0.010266863228834468,97400.73260073259,2317.0,2049.0,2068.0,2858.0,500.0,-696.0,15604.0,880.0,-337.0,-20.0,-1996.0,-4302.0,-12068.0,32920.0,5522432.0,2273.0,2822.0,0.0
8698602000,0.010266863228834468,97400.73260073259,2327.0,2049.0,2069.0,2855.0,520.0,-720.0,15576.0,883.0,-337.0,-29.0,-1998.0,-4300.0,-12062.0,32920.0,5522432.0,2280.0,2823.0,0.0
8698858000,0.010266863228834468,97400.73260073259,2325.0,2048.0,2069.0,2857.0,508.0,-708.0,15644.0,860.0,-349.0,-50.0,-1995.0,-4298.0,-12062.0,32920.0,5522432.0,2276.0,2822.0,0.0
8699114000,0.010266863228834468,97400.73260073259,2329.0,2048.0,2068.0,2858.0,524.0,-708.0,15624.0,868.0,-340.0,-32.0,-1993.0,-4309.0,-12066.0,32920.0,5522944.0,2275.0,2822.0,0.0
8699370000,0.010266863228834468,97400.73260073259,2323.0,2048.0,2067.0,2854.0,520.0,-720.0,15608.0,876.0,-356.0,-17.0,-1990.0,-4301.0,-12059.0,32920.0,5522944.0,2274.0,2822.0,0.0
