Shimmer_A5E0_Timestamp_Unix_CAL,Shimmer_A5E0_GSR_Skin_Conductance_CAL_uS,Shimmer_A5E0_GSR_Skin_Resistance_CAL_kOhm,Shimmer_A5E0_PPG_A13_CAL_mV,Shimmer_A5E0_Accel_LN_X_CAL_m/s^2,Shimmer_A5E0_Accel_LN_Y_CAL_m/s^2,Shimmer_A5E0_Accel_LN_Z_CAL_m/s^2,Shimmer_A5E0_Accel_WR_X_CAL_m/s^2,Shimmer_A5E0_Accel_WR_Y_CAL_m/s^2,Shimmer_A5E0_Accel_WR_Z_CAL_m/s^2,Shimmer_A5E0_Gyro_X_CAL_deg/s,Shimmer_A5E0_Gyro_Y_CAL_deg/s,Shimmer_A5E0_Gyro_Z_CAL_deg/s,Shimmer_A5E0_Mag_X_CAL_local,Shimmer_A5E0_Mag_Y_CAL_local,Shimmer_A5E0_Mag_Z_CAL_local,Shimmer_A5E0_Temperature_BMP280_CAL_Celcius,Shimmer_A5E0_Pressure_BMP280_CAL_Pa,Shimmer_A5E0_Ext_Exp_A7_CAL_mV,Shimmer_A5E0_VSenseBatt_CAL_mV,Shimmer_A5E0_PPGtoHR_CAL_BPM
10101378000,0.7494509516837482,1334.3101343101343,2292.0,2096.0,2348.0,1221.0,1164.0,-6032.0,-15924.0,4598.0,65.0,4854.0,-484.0,-1313.0,-417.0,32768.0,5626368.0,2269.0,2707.0,0.0
10101634000,0.7494509516837482,1334.3101343101343,2299.0,2142.0,2345.0,1242.0,2408.0,-6152.0,-15572.0,2938.0,1479.0,4690.0,-484.0,-1313.0,-417.0,32768.0,5626368.0,2272.0,2707.0,0.0
10101890000,0.7494509516837482,1334.3101343101343,2276.0,2169.0,2328.0,1270.0,2724.0,-5880.0,-15320.0,1893.0,2360.0,4265.0,-484.0,-1308.0,-418.0,32768.0,5626624.0,2256.0,2702.0,0.0
10102146000,0.7494509516837482,1334.3101343101343,2270.0,2203.0,2311.0,1272.0,3516.0,-5468.0,-15500.0,1897.0,2116.0,3883.0,-485.0,-1317.0,-419.0,32768.0,5626624.0,2260.0,2708.0,0.0
10102402000,0.7494509516837482,1334.3101343101343,2273.0,2210.0,2276.0,1290.0,3740.0,-4440.0,-14888.0,2326.0,1199.0,3997.0,-490.0,-1315.0,-414.0,32768.0,5626880.0,2262.0,2708.0,0.0
10102658000,0.7494509516837482,1334.3101343101343,2278.0,2208.0,2303.0,1289.0,3664.0,-4840.0,-14864.0,2167.0,547.0,4311.0,-490.0,-1315.0,-414.0,32768.0,5626880.0,2263.0,2708.0,0.0
10102914000,0.7494509516837482,1334.3101343101343,2259.0,2205.0,2353.0,1272.0,3620.0,-6460.0,-15188.0,1736.0,168.0,4408.0,-481.0,-1312.0,-416.0,32768.0,5626880.0,2252.0,2702.0,0.0
10103170000,0.7494509516837482,1334.3101343101343,2273.0,2178.0,2340.0,1247.0,3160.0,-6300.0,-15448.0,983.0,283.0,3908.0,-488.0,-1313.0,-418.0,32768.0,5626880.0,2263.0,2707.0,0.0
10103426000,0.02998857578065499,33346.031746031746,2274.0,2164.0,2320.0,1259.0,2752.0,-5760.0,-15384.0,632.0,730.0,2862.0,-491.0,-1318.0,-415.0,32768.0,5626624.0,2262.0,2706.0,0.0
10103682000,0.02998857578065499,33346.031746031746,2280.0,2172.0,2328.0,1283.0,2876.0,-5764.0,-15008.0,454.0,969.0,1949.0,-488.0,-1305.0,-416.0,32768.0,5626624.0,2263.0,2708.0,0.0
10103938000,0.02998857578065499,33346.031746031746,2258.0,2177.0,2330.0,1291.0,3116.0,-5860.0,-14968.0,441.0,875.0,1498.0,-488.0,-1305.0,-416.0,32768.0,5626624.0,2252.0,2702.0,0.0
10104194000,0.02998857578065499,33346.031746031746,2274.0,2180.0,2314.0,1290.0,3192.0,-5516.0,-14948.0,579.0,620.0,1198.0,-487.0,-1303.0,-416.0,32768.0,5626624.0,2265.0,2709.0,0.0
10104450000,0.02998857578065499,33346.031746031746,2294.0,2193.0,2320.0,1289.0,3352.0,-5548.0,-14772.0,591.0,441.0,806.0,-492.0,-1310.0,-419.0,32768.0,5626880.0,2271.0,2709.0,0.0
10104706000,0.02998857578065499,33346.031746031746,2305.0,2207.0,2332.0,1296.0,3676.0,-5864.0,-14648.0,491.0,475.0,529.0,-491.0,-1310.0,-419.0,32768.0,5626880.0,2274.0,2709.0,0.0
10104962000,0.02998857578065499,33346.031746031746,2291.0,2222.0,2328.0,1303.0,3860.0,-5728.0,-14596.0,630.0,603.0,376.0,-492.0,-1311.0,-422.0,32768.0,5626112.0,2264.0,2703.0,0.0
10105218000,0.02998857578065499,33346.031746031746,2290.0,2232.0,2328.0,1301.0,4148.0,-5668.0,-14664.0,810.0,514.0,379.0,-492.0,-1311.0,-422.0,32768.0,5626112.0,2263.0,2708.0,0.0
10105474000,0.02998857578065499,33346.031746031746,2299.0,2242.0,2342.0,1303.0,4288.0,-5868.0,-14652.0,1087.0,333.0,464.0,-490.0,-1312.0,-415.0,32768.0,5626368.0,2270.0,2709.0,0.0
10105730000,0.02998857578065499,33346.031746031746,2307.0,2230.0,2333.0,1297.0,4160.0,-5744.0,-14648.0,1206.0,178.0,722.0,-487.0,-1312.0,-418.0,32768.0,5626368.0,2273.0,2709.0,0.0
10105986000,0.02998857578065499,33346.031746031746,2298.0,2218.0,2321.0,1286.0,3904.0,-5640.0,-15060.0,1367.0,68.0,775.0,-493.0,-1308.0,-418.0,32768.0,5626880.0,2263.0,2703.0,0.0
10106242000,0.015298117154811717,65367.52136752136,2294.0,2210.0,2300.0,1272.0,3692.0,-4944.0,-15172.0,1364.0,-19.0,742.0,-493.0,-1308.0,-418.0,32768.0,5626880.0,2268.0,2707.0,0.0
10106498000,0.015298117154811717,65367.52136752136,2304.0,2199.0,2303.0,1266.0,3432.0,-5164.0,-15276.0,1236.0,-75.0,628.0,-494.0,-1313.0,-419.0,32768.0,5627136.0,2271.0,2707.0,0.0
10106754000,0.015298117154811717,65367.52136752136,2254.0,2183.0,2300.0,1272.0,3220.0,-5184.0,-15172.0,1232.0,-89.0,416.0,-494.0,-1308.0,-424.0,32768.0,5627136.0,2463.0,2685.0,0.0
10107010000,0.015298117154811717,65367.52136752136,2211.0,2174.0,2303.0,1278.0,2976.0,-5208.0,-15072.0,1229.0,-43.0,310.0,-490.0,-1312.0,-421.0,32768.0,5626880.0,2343.0,2702.0,0.0
10107266000,0.015298117154811717,65367.52136752136,2108.0,2175.0,2310.0,1277.0,3024.0,-5324.0,-15120.0,1241.0,-101.0,254.0,-487.0,-1318.0,-414.0,32768.0,5626880.0,2305.0,2707.0,0.0
10107522000,0.015298117154811717,65367.52136752136,2218.0,2175.0,2316.0,1277.0,3024.0,-5452.0,-15084.0,1092.0,-121.0,131.0,-487.0,-1318.0,-414.0,32768.0,5627136.0,2282.0,2708.0,0.0
10107778000,0.015298117154811717,65367.52136752136,2260.0,2181.0,2315.0,1276.0,3040.0,-5532.0,-15096.0,881.0,-8.0,38.0,-487.0,-1312.0,-421.0,32768.0,5627136.0,2272.0,2708.0,0.0
10108034000,0.015298117154811717,65367.52136752136,2260.0,2197.0,2319.0,1281.0,3436.0,-5520.0,-14948.0,748.0,108.0,-74.0,-490.0,-1313.0,-414.0,32768.0,5626880.0,2258.0,2704.0,0.0
10108290000,0.015298117154811717,65367.52136752136,2275.0,2211.0,2326.0,1281.0,3776.0,-5672.0,-14948.0,656.0,131.0,-109.0,-488.0,-1308.0,-416.0,32768.0,5626880.0,2268.0,2709.0,0.0
10108546000,0.015298117154811717,65367.52136752136,2261.0,2226.0,2323.0,1278.0,3960.0,-5572.0,-15064.0,627.0,139.0,-45.0,-480.0,-1313.0,-414.0,32768.0,5627392.0,2256.0,2704.0,0.0
10108802000,0.015298117154811717,65367.52136752136,2263.0,2235.0,2323.0,1267.0,4260.0,-5492.0,-15284.0,654.0,162.0,202.0,-480.0,-1313.0,-414.0,32768.0,5627392.0,2260.0,2708.0,0.0
10109058000,0.010265421947697738,97414.40781440781,2249.0,2213.0,2310.0,1278.0,3928.0,-5392.0,-15120.0,500.0,303.0,362.0,-485.0,-1309.0,-416.0,32768.0,5628160.0,2250.0,2702.0,0.0
10109314000,0.010265421947697738,97414.40781440781,2263.0,2191.0,2306.0,1287.0,3256.0,-5268.0,-14804.0,520.0,385.0,389.0,-488.0,-1313.0,-414.0,32768.0,5628160.0,2264.0,2709.0,0.0
10109570000,0.010265421947697738,97414.40781440781,2282.0,2184.0,2311.0,1283.0,3204.0,-5344.0,-14956.0,624.0,362.0,332.0,-488.0,-1311.0,-418.0,32768.0,5627392.0,2270.0,2709.0,0.0
10109826000,0.010265421947697738,97414.40781440781,2297.0,2181.0,2309.0,1283.0,3232.0,-5332.0,-14948.0,594.0,467.0,425.0,-488.0,-1311.0,-418.0,32768.0,5627392.0,2273.0,2709.0,0.0
10110082000,0.010265421947697738,97414.40781440781,2290.0,2173.0,2310.0,1291.0,3000.0,-5376.0,-14836.0,557.0,508.0,521.0,-488.0,-1305.0,-415.0,32768.0,5627136.0,2264.0,2703.0,0.0
10110338000,0.010265421947697738,97414.40781440781,2297.0,2174.0,2319.0,1296.0,2988.0,-5504.0,-14740.0,648.0,487.0,552.0,-490.0,-1312.0,-422.0,32768.0,5627136.0,2270.0,2709.0,0.0
10110594000,0.010265421947697738,97414.40781440781,2306.0,2185.0,2320.0,1292.0,3240.0,-5560.0,-14748.0,645.0,464.0,487.0,-500.0,-1315.0,-417.0,32768.0,5627904.0,2273.0,2709.0,0.0
10110850000,0.010265421947697738,97414.40781440781,2312.0,2189.0,2318.0,1288.0,3328.0,-5560.0,-14824.0,546.0,612.0,386.0,-496.0,-1309.0,-414.0,32768.0,5627904.0,2274.0,2709.0,0.0
10111106000,0.010265421947697738,97414.40781440781,2272.0,2200.0,2327.0,1276.0,3572.0,-5748.0,-15020.0,439.0,958.0,255.0,-496.0,-1309.0,-414.0,32768.0,5626880.0,2471.0,2687.0,0.0
10111362000,0.010265421947697738,97414.40781440781,2258.0,2225.0,2308.0,1237.0,3844.0,-5552.0,-15408.0,159.0,1499.0,216.0,-495.0,-1312.0,-411.0,32768.0,5626880.0,2364.0,2709.0,0.0
10111618000,0.010265421947697738,97414.40781440781,2143.0,2260.0,2306.0,1240.0,4768.0,-5112.0,-15660.0,-360.0,1967.0,352.0,-505.0,-1309.0,-421.0,32768.0,5626880.0,2310.0,2708.0,0.0
10111874000,0.010265421947697738,97414.40781440781,2256.0,2238.0,2309.0,1281.0,4636.0,-5048.0,-15280.0,-558.0,2350.0,667.0,-502.0,-1308.0,-417.0,32768.0,5626880.0,2291.0,2709.0,0.0
10112130000,0.010265421947697738,97414.40781440781,2270.0,2220.0,2344.0,1308.0,3860.0,-5832.0,-14544.0,-319.0,2293.0,1109.0,-501.0,-1309.0,-406.0,32768.0,5627392.0,2265.0,2702.0,0.0
10112386000,0.010265421947697738,97414.40781440781,2293.0,2230.0,2364.0,1315.0,4212.0,-6224.0,-14400.0,-350.0,2091.0,1797.0,-501.0,-1309.0,-406.0,32768.0,5627392.0,2271.0,2709.0,0.0
10112642000,0.010265421947697738,97414.40781440781,2305.0,2223.0,2338.0,1329.0,4036.0,-5988.0,-14168.0,112.0,1636.0,2291.0,-501.0,-1306.0,-420.0,32768.0,5627392.0,2274.0,2709.0,0.0
10112898000,0.010265421947697738,97414.40781440781,2316.0,2219.0,2320.0,1319.0,3888.0,-5572.0,-14356.0,510.0,1297.0,2142.0,-503.0,-1308.0,-420.0,32768.0,5627392.0,2275.0,2709.0,0.0
10113154000,0.010265421947697738,97414.40781440781,2299.0,2236.0,2336.0,1306.0,4072.0,-5776.0,-14516.0,593.0,1335.0,1838.0,-516.0,-1303.0,-418.0,32768.0,5627392.0,2264.0,2703.0,0.0
10113410000,0.010265421947697738,97414.40781440781,2288.0,2241.0,2336.0,1305.0,4384.0,-5912.0,-14620.0,600.0,1418.0,1808.0,-516.0,-1303.0,-418.0,32768.0,5627392.0,2264.0,2708.0,0.0
10113666000,0.010265421947697738,97414.40781440781,2303.0,2235.0,2325.0,1296.0,4196.0,-5688.0,-14508.0,707.0,1466.0,1628.0,-499.0,-1308.0,-412.0,32768.0,5627648.0,2271.0,2709.0,0.0
10113922000,0.010265421947697738,97414.40781440781,2310.0,2235.0,2337.0,1265.0,4224.0,-5840.0,-15228.0,1657.0,1235.0,1452.0,-501.0,-1310.0,-410.0,32768.0,5627648.0,2273.0,2709.0,0.0
10114178000,0.010265421947697738,97414.40781440781,2300.0,2255.0,2319.0,1293.0,4664.0,-5176.0,-14596.0,1657.0,1235.0,1452.0,-502.0,-1307.0,-405.0,32768.0,5627136.0,2263.0,2703.0,0.0
10114434000,0.010265421947697738,97414.40781440781,2296.0,2220.0,2299.0,1266.0,3896.0,-4912.0,-15284.0,3757.0,-131.0,1648.0,-500.0,-1308.0,-414.0,32768.0,5627136.0,2268.0,2707.0,0.0
10114690000,0.010265421947697738,97414.40781440781,2294.0,2257.0,2303.0,1314.0,4756.0,-4944.0,-13828.0,4837.0,-127.0,1786.0,-500.0,-1308.0,-414.0,32768.0,5627392.0,2266.0,2708.0,0.0
10114946000,0.010265421947697738,97414.40781440781,2252.0,2268.0,2324.0,1337.0,4752.0,-5288.0,-13428.0,3629.0,454.0,2458.0,-499.0,-1310.0,-413.0,32768.0,5627392.0,2468.0,2687.0,0.0
10115202000,0.010265421947697738,97414.40781440781,2222.0,2273.0,2325.0,1332.0,4908.0,-5816.0,-13980.0,2179.0,1615.0,2557.0,-499.0,-1310.0,-414.0,32768.0,5627392.0,2352.0,2703.0,0.0
10115458000,0.010265421947697738,97414.40781440781,2318.0,2286.0,2332.0,1318.0,5136.0,-5884.0,-14148.0,2081.0,1915.0,2259.0,-493.0,-1310.0,-407.0,32768.0,5627392.0,2303.0,2708.0,0.0
10115714000,0.010265421947697738,97414.40781440781,2343.0,2275.0,2310.0,1301.0,5056.0,-5336.0,-14548.0,1884.0,1785.0,1726.0,-497.0,-1312.0,-412.0,32768.0,5627648.0,2289.0,2709.0,0.0
10115970000,0.010265421947697738,97414.40781440781,2346.0,2256.0,2291.0,1296.0,4648.0,-4888.0,-14604.0,1596.0,2008.0,1732.0,-497.0,-1312.0,-412.0,32768.0,5627648.0,2282.0,2709.0,0.0
10116226000,0.010265421947697738,97414.40781440781,2314.0,2274.0,2302.0,1267.0,4956.0,-5056.0,-14996.0,1564.0,2265.0,1797.0,-502.0,-1311.0,-414.0,32768.0,5627136.0,2261.0,2702.0,0.0
10116482000,0.010265421947697738,97414.40781440781,2298.0,2289.0,2292.0,1211.0,5312.0,-4864.0,-16400.0,1744.0,2505.0,2007.0,-496.0,-1317.0,-408.0,32768.0,5627136.0,2262.0,2708.0,0.0
10116738000,0.010265421947697738,97414.40781440781,2294.0,2267.0,2278.0,1211.0,5144.0,-4444.0,-16240.0,2497.0,2755.0,2081.0,-503.0,-1318.0,-413.0,32768.0,5626880.0,2263.0,2708.0,0.0
10116994000,0.010265421947697738,97414.40781440781,2289.0,2231.0,2315.0,1185.0,4080.0,-5448.0,-17532.0,4117.0,2804.0,2544.0,-503.0,-1318.0,-413.0,32768.0,5626880.0,2263.0,2708.0,0.0
10117250000,0.010265421947697738,97414.40781440781,2284.0,2247.0,2261.0,1204.0,4348.0,-5064.0,-17368.0,8033.0,1269.0,2980.0,-507.0,-1313.0,-416.0,32768.0,5627392.0,2259.0,2703.0,0.0
10117506000,0.010265421947697738,97414.40781440781,2288.0,2278.0,2167.0,1302.0,5152.0,-2316.0,-14756.0,11636.0,-864.0,3062.0,-507.0,-1319.0,-413.0,32768.0,5627392.0,2268.0,2709.0,0.0
10117762000,0.010265421947697738,97414.40781440781,2290.0,2347.0,2206.0,1377.0,5820.0,-2588.0,-13640.0,12277.0,-1873.0,3492.0,-507.0,-1320.0,-420.0,32768.0,5627392.0,2266.0,2708.0,0.0
10118018000,0.010265421947697738,97414.40781440781,2284.0,2379.0,2220.0,1352.0,7160.0,-3636.0,-12712.0,9419.0,-1417.0,3801.0,-507.0,-1332.0,-420.0,32768.0,5627392.0,2264.0,2708.0,0.0
10118274000,0.010265421947697738,97414.40781440781,2260.0,2295.0,2194.0,1306.0,4892.0,-2880.0,-14540.0,7037.0,694.0,3294.0,-507.0,-1332.0,-420.0,32768.0,5627392.0,2252.0,2702.0,0.0
10118530000,0.010265421947697738,97414.40781440781,2263.0,2283.0,2190.0,1354.0,4992.0,-2820.0,-13592.0,7243.0,1863.0,2868.0,-511.0,-1328.0,-425.0,32768.0,5627392.0,2258.0,2708.0,0.0
10118786000,0.010265421947697738,97414.40781440781,2281.0,2321.0,2211.0,1301.0,6068.0,-3424.0,-14928.0,6869.0,1980.0,3051.0,-513.0,-1331.0,-430.0,32768.0,5627648.0,2267.0,2709.0,0.0
10119042000,0.010265421947697738,97414.40781440781,2285.0,2336.0,2199.0,1260.0,6408.0,-3320.0,-15168.0,7137.0,1665.0,3001.0,-504.0,-1336.0,-428.0,32768.0,5627648.0,2265.0,2708.0,0.0
10119298000,0.010265421947697738,97414.40781440781,2266.0,2309.0,2180.0,1226.0,5596.0,-2876.0,-16160.0,6947.0,1620.0,2804.0,-510.0,-1344.0,-429.0,32768.0,5627904.0,2253.0,2702.0,0.0
10119554000,0.010265421947697738,97414.40781440781,2270.0,2316.0,2140.0,1246.0,5576.0,-2348.0,-15872.0,7838.0,1726.0,2358.0,-510.0,-1344.0,-429.0,32768.0,5627904.0,2259.0,2708.0,0.0
10119810000,0.010265421947697738,97414.40781440781,2287.0,2338.0,2112.0,1290.0,6280.0,-1288.0,-14696.0,8436.0,2062.0,2066.0,-509.0,-1332.0,-432.0,32768.0,5627392.0,2269.0,2710.0,0.0
10120066000,0.010265421947697738,97414.40781440781,2289.0,2335.0,2093.0,1319.0,6040.0,-824.0,-13884.0,8326.0,2669.0,2029.0,-511.0,-1345.0,-433.0,32768.0,5627392.0,2266.0,2708.0,0.0
10120322000,0.010265421947697738,97414.40781440781,2270.0,2296.0,2084.0,1337.0,5452.0,-728.0,-13732.0,7622.0,3290.0,2292.0,-515.0,-1346.0,-433.0,32768.0,5627136.0,2254.0,2702.0,0.0
10120578000,0.010265421947697738,97414.40781440781,2270.0,2285.0,2086.0,1301.0,5224.0,-852.0,-14904.0,6735.0,3572.0,2358.0,-515.0,-1346.0,-433.0,32768.0,5627136.0,2259.0,2708.0,0.0
10120834000,0.010265421947697738,97414.40781440781,2274.0,2316.0,2090.0,1267.0,5636.0,-936.0,-15472.0,7878.0,3268.0,2280.0,-515.0,-1350.0,-436.0,32768.0,5627392.0,2261.0,2708.0,0.0
10121090000,0.010265421947697738,97414.40781440781,2288.0,2346.0,2085.0,1272.0,6456.0,-824.0,-15264.0,9349.0,2361.0,2216.0,-511.0,-1355.0,-439.0,32768.0,5627392.0,2269.0,2709.0,0.0
10121346000,0.010265421947697738,97414.40781440781,2282.0,2362.0,2067.0,1231.0,6676.0,-500.0,-15636.0,9472.0,1709.0,2133.0,-511.0,-1357.0,-438.0,32768.0,5627136.0,2261.0,2703.0,0.0
10121602000,0.010265421947697738,97414.40781440781,2279.0,2387.0,2043.0,1223.0,7228.0,68.0,-15636.0,10497.0,1923.0,2243.0,-508.0,-1358.0,-443.0,32768.0,5627136.0,2262.0,2708.0,0.0
10121858000,0.010265421947697738,97414.40781440781,2290.0,2385.0,1969.0,1154.0,6892.0,836.0,-17096.0,12015.0,2999.0,2669.0,-508.0,-1358.0,-443.0,32768.0,5627136.0,2269.0,2709.0,0.0
10122114000,0.010265421947697738,97414.40781440781,2304.0,2410.0,1931.0,1200.0,7660.0,2868.0,-17508.0,15045.0,2838.0,3924.0,-512.0,-1364.0,-454.0,32768.0,5627136.0,2273.0,2709.0,0.0
10122370000,0.010265421947697738,97414.40781440781,2297.0,2402.0,1899.0,1303.0,7336.0,2988.0,-14340.0,15265.0,1783.0,5005.0,-506.0,-1368.0,-458.0,32768.0,5627648.0,2263.0,2703.0,0.0
10122626000,0.010265421947697738,97414.40781440781,2293.0,2374.0,1885.0,1362.0,6864.0,3104.0,-13976.0,16418.0,1657.0,4854.0,-504.0,-1370.0,-461.0,32768.0,5627648.0,2263.0,2708.0,0.0
10122882000,0.010265421947697738,97414.40781440781,2299.0,2344.0,1914.0,1422.0,6160.0,2152.0,-11956.0,15718.0,1471.0,3607.0,-503.0,-1384.0,-474.0,32768.0,5627648.0,2270.0,2709.0,0.0
10123138000,0.010265421947697738,97414.40781440781,2296.0,2338.0,1989.0,1397.0,5952.0,1076.0,-12384.0,13847.0,1789.0,1873.0,-503.0,-1384.0,-474.0,32768.0,5627648.0,2266.0,2708.0,0.0
10123394000,0.010265421947697738,97414.40781440781,2282.0,2389.0,1957.0,1324.0,7232.0,1700.0,-14424.0,13112.0,1313.0,856.0,-502.0,-1388.0,-473.0,32768.0,5627392.0,2260.0,2703.0,0.0
10123650000,0.010265421947697738,97414.40781440781,2287.0,2431.0,1897.0,1278.0,7872.0,2444.0,-15508.0,14304.0,14.0,976.0,-504.0,-1389.0,-478.0,32768.0,5627392.0,2268.0,2709.0,0.0
10123906000,0.010265421947697738,97414.40781440781,2296.0,2438.0,1804.0,1280.0,8140.0,4964.0,-15504.0,15231.0,-1346.0,1121.0,-507.0,-1391.0,-486.0,32768.0,5627136.0,2272.0,2709.0,0.0
10124162000,0.010265421947697738,97414.40781440781,2305.0,2423.0,1794.0,1294.0,7728.0,4992.0,-14772.0,14970.0,-2274.0,1585.0,-507.0,-1391.0,-486.0,32768.0,5627136.0,2274.0,2709.0,0.0
10124418000,0.010265421947697738,97414.40781440781,2299.0,2413.0,1757.0,1272.0,7564.0,5552.0,-15456.0,15268.0,-2085.0,1585.0,-517.0,-1395.0,-499.0,32768.0,5627648.0,2263.0,2703.0,0.0
10124674000,0.010265421947697738,97414.40781440781,2289.0,2420.0,1699.0,1336.0,7972.0,7412.0,-14308.0,18540.0,-2414.0,2488.0,-501.0,-1404.0,-505.0,32768.0,5627648.0,2264.0,2708.0,0.0
10124930000,0.010265421947697738,97414.40781440781,2289.0,2405.0,1722.0,1442.0,7840.0,7272.0,-12908.0,21448.0,-4002.0,3728.0,-507.0,-1403.0,-519.0,32768.0,5627904.0,2263.0,2708.0,0.0
10125186000,0.010265421947697738,97414.40781440781,2295.0,2347.0,1801.0,1517.0,6308.0,4760.0,-10260.0,21024.0,-4238.0,4469.0,-505.0,-1411.0,-527.0,32768.0,5627904.0,2269.0,2707.0,0.0
10125442000,0.010265421947697738,97414.40781440781,2256.0,2368.0,1723.0,1490.0,6916.0,5860.0,-10884.0,20251.0,-4133.0,4234.0,-505.0,-1411.0,-527.0,32768.0,5627392.0,2469.0,2687.0,0.0
10125698000,0.010265421947697738,97414.40781440781,2233.0,2409.0,1693.0,1458.0,7436.0,6936.0,-11128.0,18643.0,-3903.0,3719.0,-504.0,-1417.0,-535.0,32768.0,5627392.0,2356.0,2708.0,0.0
10125954000,0.010265421947697738,97414.40781440781,2122.0,2450.0,1683.0,1406.0,8684.0,7460.0,-12392.0,16790.0,-2854.0,3658.0,-501.0,-1420.0,-551.0,32768.0,5627904.0,2306.0,2708.0,0.0
10126210000,0.010265421947697738,97414.40781440781,2231.0,2462.0,1672.0,1378.0,8768.0,7816.0,-12688.0,16550.0,-1473.0,4206.0,-504.0,-1425.0,-564.0,32768.0,5627904.0,2283.0,2708.0,0.0
10126466000,0.010265421947697738,97414.40781440781,2244.0,2440.0,1712.0,1360.0,8216.0,6824.0,-12644.0,15707.0,766.0,5269.0,-501.0,-1426.0,-572.0,32768.0,5627392.0,2260.0,2701.0,0.0
10126722000,0.010265421947697738,97414.40781440781,2261.0,2463.0,1703.0,1369.0,8736.0,6752.0,-12696.0,13433.0,3380.0,5819.0,-501.0,-1426.0,-572.0,32768.0,5627392.0,2262.0,2708.0,0.0
10126978000,0.010265421947697738,97414.40781440781,2274.0,2429.0,1664.0,1398.0,7948.0,7456.0,-12712.0,12005.0,4220.0,5378.0,-493.0,-1427.0,-579.0,32768.0,5627392.0,2263.0,2708.0,0.0
10127234000,0.010265421947697738,97414.40781440781,2289.0,2368.0,1581.0,1430.0,6848.0,8244.0,-12624.0,10865.0,3261.0,3838.0,-491.0,-1425.0,-584.0,32768.0,5627392.0,2270.0,2709.0,0.0
10127490000,0.010265421947697738,97414.40781440781,2275.0,2323.0,1511.0,1473.0,5860.0,10756.0,-11152.0,10564.0,2603.0,2855.0,-491.0,-1433.0,-588.0,32768.0,5627904.0,2255.0,2702.0,0.0
10127746000,0.010265421947697738,97414.40781440781,2274.0,2287.0,1474.0,1489.0,5500.0,11348.0,-11012.0,10282.0,2773.0,3227.0,-491.0,-1433.0,-588.0,32768.0,5627904.0,2259.0,2708.0,0.0
10128002000,0.010265421947697738,97414.40781440781,2277.0,2266.0,1447.0,1525.0,4740.0,12004.0,-10356.0,10128.0,2544.0,3517.0,-488.0,-1434.0,-593.0,32768.0,5627648.0,2262.0,2708.0,0.0
10128258000,0.010265421947697738,97414.40781440781,2290.0,2246.0,1445.0,1545.0,4276.0,11740.0,-9864.0,10088.0,2333.0,3398.0,-484.0,-1432.0,-601.0,32768.0,5627648.0,2269.0,2709.0,0.0
10128514000,0.010265421947697738,97414.40781440781,2275.0,2248.0,1446.0,1520.0,4312.0,11648.0,-10140.0,10008.0,2423.0,2207.0,-489.0,-1431.0,-612.0,32768.0,5627904.0,2255.0,2702.0,0.0
10128770000,0.010265421947697738,97414.40781440781,2277.0,2263.0,1466.0,1517.0,4740.0,11388.0,-10520.0,10071.0,2161.0,1219.0,-482.0,-1428.0,-613.0,32768.0,5627904.0,2264.0,2707.0,0.0
10129026000,0.010265421947697738,97414.40781440781,2277.0,2295.0,1471.0,1541.0,5204.0,11492.0,-10376.0,9634.0,1435.0,1184.0,-482.0,-1428.0,-613.0,32768.0,5628160.0,2264.0,2708.0,0.0
10129282000,0.010265421947697738,97414.40781440781,2292.0,2298.0,1476.0,1577.0,5460.0,11500.0,-9300.0,8628.0,969.0,1575.0,-478.0,-1438.0,-624.0,32768.0,5628160.0,2270.0,2709.0,0.0
10129538000,0.010265421947697738,97414.40781440781,2277.0,2299.0,1441.0,1620.0,5352.0,11724.0,-8636.0,8072.0,1057.0,1937.0,-477.0,-1427.0,-631.0,32768.0,5627648.0,2255.0,2702.0,0.0
10129794000,0.010265421947697738,97414.40781440781,2271.0,2310.0,1404.0,1653.0,5552.0,12888.0,-7608.0,8375.0,1005.0,2313.0,-479.0,-1432.0,-634.0,32768.0,5627648.0,2260.0,2708.0,0.0
10130050000,0.010265421947697738,97414.40781440781,2285.0,2339.0,1412.0,1606.0,6252.0,12516.0,-8936.0,7917.0,764.0,2244.0,-473.0,-1433.0,-643.0,32768.0,5627904.0,2267.0,2707.0,0.0
10130306000,0.010265421947697738,97414.40781440781,2301.0,2366.0,1413.0,1589.0,6596.0,12520.0,-9140.0,7940.0,505.0,1835.0,-473.0,-1433.0,-643.0,32768.0,5627904.0,2271.0,2709.0,0.0
10130562000,0.010265421947697738,97414.40781440781,2278.0,2353.0,1412.0,1619.0,6404.0,12596.0,-8548.0,8300.0,-263.0,1428.0,-473.0,-1431.0,-644.0,32768.0,5628160.0,2256.0,2702.0,0.0
10130818000,0.010265421947697738,97414.40781440781,2272.0,2280.0,1412.0,1685.0,5084.0,12596.0,-7532.0,8300.0,-263.0,1428.0,-476.0,-1424.0,-643.0,32768.0,5628160.0,2260.0,2708.0,0.0
10131074000,0.010265421947697738,97414.40781440781,2274.0,2269.0,1360.0,1658.0,4736.0,14028.0,-7960.0,10104.0,-1419.0,1601.0,-476.0,-1428.0,-651.0,32768.0,5628160.0,2262.0,2708.0,0.0
10131330000,0.010265421947697738,97414.40781440781,2274.0,2303.0,1333.0,1621.0,5296.0,13960.0,-8384.0,10891.0,-2412.0,1750.0,-476.0,-1428.0,-651.0,32768.0,5628160.0,2262.0,2708.0,0.0
10131586000,0.010265421947697738,97414.40781440781,2258.0,2298.0,1354.0,1675.0,5324.0,13836.0,-7376.0,9871.0,-2671.0,1384.0,-477.0,-1423.0,-660.0,32768.0,5627392.0,2252.0,2702.0,0.0
10131842000,0.010265421947697738,97414.40781440781,2260.0,2284.0,1363.0,1719.0,5344.0,13664.0,-6684.0,9566.0,-2954.0,1490.0,-469.0,-1432.0,-665.0,32768.0,5627392.0,2258.0,2708.0,0.0
10132098000,0.010265421947697738,97414.40781440781,2267.0,2273.0,1353.0,1760.0,4932.0,13832.0,-5624.0,9357.0,-3085.0,1616.0,-469.0,-1426.0,-666.0,32768.0,5627904.0,2261.0,2708.0,0.0
10132354000,0.010265421947697738,97414.40781440781,2284.0,2278.0,1336.0,1785.0,4956.0,14244.0,-5096.0,9171.0,-3058.0,1719.0,-475.0,-1435.0,-675.0,32768.0,5627904.0,2267.0,2707.0,0.0
10132610000,0.010265421947697738,97414.40781440781,2279.0,2267.0,1336.0,1793.0,4752.0,14248.0,-5044.0,9012.0,-2979.0,1734.0,-475.0,-1435.0,-675.0,32768.0,5627648.0,2261.0,2703.0,0.0
10132866000,0.010265421947697738,97414.40781440781,2280.0,2266.0,1334.0,1780.0,4748.0,14168.0,-5476.0,8587.0,-3371.0,1837.0,-480.0,-1424.0,-686.0,32768.0,5627648.0,2262.0,2708.0,0.0
10133122000,0.010265421947697738,97414.40781440781,2299.0,2269.0,1301.0,1790.0,4752.0,14644.0,-5368.0,8461.0,-3856.0,1805.0,-480.0,-1429.0,-691.0,32768.0,5627648.0,2274.0,2707.0,0.0
10133378000,0.010265421947697738,97414.40781440781,2301.0,2264.0,1286.0,1810.0,4736.0,15128.0,-4688.0,8371.0,-4182.0,1924.0,-478.0,-1421.0,-695.0,32768.0,5627648.0,2269.0,2708.0,0.0
10133634000,0.010265421947697738,97414.40781440781,2274.0,2252.0,1295.0,1805.0,4476.0,14928.0,-4808.0,8025.0,-4375.0,1874.0,-476.0,-1420.0,-697.0,32768.0,5627904.0,2253.0,2701.0,0.0
10133890000,0.010265421947697738,97414.40781440781,2282.0,2251.0,1281.0,1801.0,4408.0,15200.0,-5048.0,7638.0,-4788.0,1811.0,-476.0,-1420.0,-697.0,32768.0,5627904.0,2265.0,2709.0,0.0
10134146000,0.010265421947697738,97414.40781440781,2281.0,2290.0,1266.0,1829.0,5356.0,15612.0,-4108.0,7162.0,-5096.0,1772.0,-478.0,-1427.0,-707.0,32768.0,5627904.0,2264.0,2708.0,0.0
10134402000,0.010265421947697738,97414.40781440781,2280.0,2290.0,1259.0,1823.0,5244.0,15716.0,-4304.0,6853.0,-4793.0,1634.0,-472.0,-1429.0,-716.0,32768.0,5627904.0,2264.0,2708.0,0.0
10134658000,0.010265421947697738,97414.40781440781,2263.0,2270.0,1268.0,1830.0,4792.0,15432.0,-4284.0,6237.0,-4309.0,1488.0,-478.0,-1422.0,-715.0,32768.0,5627904.0,2251.0,2701.0,0.0
10134914000,0.010265421947697738,97414.40781440781,2273.0,2255.0,1279.0,1856.0,4604.0,15324.0,-3900.0,5635.0,-4357.0,1430.0,-478.0,-1422.0,-715.0,32768.0,5627904.0,2263.0,2707.0,0.0
10135170000,0.010265421947697738,97414.40781440781,2281.0,2244.0,1281.0,1865.0,4272.0,15232.0,-3472.0,4733.0,-4147.0,1483.0,-475.0,-1421.0,-716.0,32768.0,5627904.0,2263.0,2708.0,0.0
10135426000,0.010265421947697738,97414.40781440781,2287.0,2257.0,1263.0,1873.0,4424.0,15464.0,-3256.0,3842.0,-3577.0,1405.0,-473.0,-1425.0,-722.0,32768.0,5627904.0,2268.0,2707.0,0.0
10135682000,0.010265421947697738,97414.40781440781,2259.0,2264.0,1268.0,1876.0,4740.0,15572.0,-3148.0,3047.0,-2770.0,1371.0,-469.0,-1419.0,-726.0,32768.0,5627648.0,2247.0,2700.0,0.0
10135938000,0.010265421947697738,97414.40781440781,2266.0,2264.0,1275.0,1845.0,4676.0,15356.0,-4036.0,2414.0,-2264.0,1390.0,-494.0,-1424.0,-725.0,32768.0,5627648.0,2261.0,2707.0,0.0
10136194000,0.010265421947697738,97414.40781440781,2282.0,2253.0,1275.0,1822.0,4624.0,15388.0,-4436.0,1882.0,-1830.0,1341.0,-494.0,-1424.0,-725.0,32768.0,5628160.0,2267.0,2707.0,0.0
10136450000,0.010265421947697738,97414.40781440781,2288.0,2239.0,1278.0,1802.0,4224.0,15352.0,-4896.0,1501.0,-1682.0,1194.0,-463.0,-1423.0,-726.0,32768.0,5628160.0,2265.0,2708.0,0.0
10136706000,0.010265421947697738,97414.40781440781,2268.0,2226.0,1275.0,1791.0,4040.0,15384.0,-5056.0,1360.0,-1802.0,1136.0,-463.0,-1423.0,-727.0,32768.0,5627904.0,2251.0,2701.0,0.0
10136962000,0.010265421947697738,97414.40781440781,2266.0,2216.0,1276.0,1781.0,3764.0,15420.0,-5388.0,1583.0,-2201.0,1250.0,-464.0,-1424.0,-732.0,32768.0,5627904.0,2258.0,2708.0,0.0
10137218000,0.010265421947697738,97414.40781440781,2243.0,2198.0,1275.0,1772.0,3564.0,15324.0,-5504.0,1945.0,-2613.0,1258.0,-466.0,-1421.0,-726.0,32768.0,5627648.0,2248.0,2701.0,0.0
10137474000,0.010265421947697738,97414.40781440781,2260.0,2184.0,1259.0,1791.0,3192.0,15792.0,-5292.0,2496.0,-3227.0,1301.0,-466.0,-1421.0,-726.0,32768.0,5627648.0,2262.0,2707.0,0.0
10137730000,0.010265421947697738,97414.40781440781,2248.0,2167.0,1264.0,1831.0,2964.0,15888.0,-4860.0,3276.0,-4048.0,1580.0,-471.0,-1422.0,-729.0,32768.0,5627904.0,2250.0,2701.0,0.0
10137986000,0.010265421947697738,97414.40781440781,2254.0,2135.0,1280.0,1857.0,1060.0,9336.0,-1892.0,7797.0,-5469.0,2644.0,-466.0,-1425.0,-734.0,32768.0,5627904.0,2257.0,2708.0,0.0
10138242000,0.010265421947697738,97414.40781440781,2271.0,2223.0,1249.0,1726.0,4092.0,15100.0,-5540.0,6210.0,-6610.0,2526.0,-462.0,-1425.0,-737.0,32768.0,5627648.0,2266.0,2707.0,0.0
10138498000,0.010265421947697738,97414.40781440781,2285.0,2215.0,1239.0,1815.0,3976.0,15572.0,-4436.0,4780.0,-6418.0,2287.0,-462.0,-1425.0,-737.0,32768.0,5627648.0,2269.0,2707.0,0.0
10138754000,0.010265421947697738,97414.40781440781,2270.0,2184.0,1233.0,1814.0,3040.0,16136.0,-4548.0,4625.0,-5685.0,2184.0,-466.0,-1422.0,-744.0,32768.0,5627904.0,2254.0,2701.0,0.0
10139010000,0.010265421947697738,97414.40781440781,2274.0,2173.0,1264.0,1847.0,2920.0,15500.0,-4228.0,4602.0,-5152.0,1929.0,-463.0,-1418.0,-741.0,32768.0,5627904.0,2264.0,2707.0,0.0
10139266000,0.010265421947697738,97414.40781440781,2276.0,2169.0,1266.0,1889.0,2860.0,15444.0,-2976.0,4486.0,-4538.0,1532.0,-470.0,-1412.0,-750.0,32768.0,5628416.0,2264.0,2708.0,0.0
10139522000,0.010265421947697738,97414.40781440781,2288.0,2162.0,1266.0,1934.0,2356.0,15336.0,-1652.0,3432.0,-3044.0,913.0,-470.0,-1416.0,-746.0,32768.0,5628416.0,2269.0,2707.0,0.0
10139778000,0.010265421947697738,97414.40781440781,2260.0,2181.0,1253.0,1916.0,3016.0,15800.0,-2248.0,2183.0,-671.0,298.0,-470.0,-1416.0,-746.0,32768.0,5627904.0,2247.0,2700.0,0.0
10140034000,0.010265421947697738,97414.40781440781,2257.0,2188.0,1245.0,1872.0,3164.0,15868.0,-3860.0,2260.0,-242.0,353.0,-471.0,-1417.0,-747.0,32768.0,5627904.0,2256.0,2708.0,0.0
10140290000,0.010265421947697738,97414.40781440781,2265.0,2144.0,1252.0,1879.0,2484.0,15680.0,-3700.0,3261.0,-723.0,59.0,-472.0,-1417.0,-751.0,32768.0,5627648.0,2259.0,2708.0,0.0
10140546000,0.010265421947697738,97414.40781440781,2270.0,2124.0,1258.0,1924.0,1908.0,15636.0,-2244.0,3410.0,-769.0,-542.0,-480.0,-1405.0,-757.0,32768.0,5627648.0,2262.0,2708.0,0.0
10140802000,0.010265421947697738,97414.40781440781,2243.0,2140.0,1260.0,1926.0,2212.0,15688.0,-2200.0,3045.0,-239.0,-797.0,-476.0,-1419.0,-754.0,32768.0,5627648.0,2243.0,2700.0,0.0
10141058000,0.010265421947697738,97414.40781440781,2258.0,2156.0,1266.0,1914.0,2636.0,15460.0,-2668.0,2715.0,326.0,-980.0,-476.0,-1419.0,-754.0,32768.0,5627648.0,2259.0,2707.0,0.0
10141314000,0.010265421947697738,97414.40781440781,2275.0,2151.0,1275.0,1909.0,2468.0,15360.0,-2768.0,2424.0,576.0,-1255.0,-477.0,-1412.0,-759.0,32768.0,5628160.0,2266.0,2707.0,0.0
10141570000,0.010265421947697738,97414.40781440781,2282.0,2171.0,1279.0,1926.0,2844.0,15308.0,-2388.0,2135.0,687.0,-1387.0,-464.0,-1416.0,-756.0,32768.0,5628160.0,2265.0,2708.0,0.0
10141826000,0.010265421947697738,97414.40781440781,2251.0,2172.0,1281.0,1913.0,3000.0,15212.0,-2960.0,1866.0,944.0,-1368.0,-489.0,-1412.0,-756.0,32768.0,5627904.0,2245.0,2700.0,0.0
10142082000,0.010265421947697738,97414.40781440781,2256.0,2158.0,1271.0,1877.0,2592.0,15464.0,-3456.0,1949.0,740.0,-1329.0,-489.0,-1412.0,-756.0,32768.0,5627904.0,2260.0,2707.0,0.0
10142338000,0.010265421947697738,97414.40781440781,2267.0,2172.0,1261.0,1855.0,2944.0,15784.0,-3976.0,2049.0,208.0,-1154.0,-479.0,-1414.0,-756.0,32768.0,5627648.0,2262.0,2708.0,0.0
10142594000,0.010265421947697738,97414.40781440781,2279.0,2193.0,1260.0,1871.0,3188.0,15680.0,-3664.0,1820.0,-136.0,-1062.0,-479.0,-1420.0,-753.0,32768.0,5627648.0,2268.0,2707.0,0.0
10142850000,0.010265421947697738,97414.40781440781,2264.0,2187.0,1261.0,1903.0,3160.0,15740.0,-2856.0,1634.0,-259.0,-976.0,-475.0,-1413.0,-754.0,32768.0,5627904.0,2253.0,2701.0,0.0
10143106000,0.010265421947697738,97414.40781440781,2262.0,2188.0,1260.0,1915.0,3192.0,15728.0,-2676.0,1482.0,-279.0,-812.0,-480.0,-1415.0,-762.0,32768.0,5627904.0,2257.0,2706.0,0.0
10143362000,0.010265421947697738,97414.40781440781,2275.0,2195.0,1261.0,1904.0,3324.0,15680.0,-2884.0,1265.0,-279.0,-675.0,-480.0,-1415.0,-762.0,32768.0,5627904.0,2266.0,2707.0,0.0
10143618000,0.010265421947697738,97414.40781440781,2278.0,2201.0,1258.0,1905.0,3356.0,15760.0,-2908.0,1035.0,-306.0,-644.0,-470.0,-1414.0,-760.0,32768.0,5627904.0,2264.0,2708.0,0.0
10143874000,0.010265421947697738,97414.40781440781,2262.0,2208.0,1256.0,1911.0,3632.0,15764.0,-2768.0,882.0,-398.0,-542.0,-471.0,-1411.0,-759.0,32768.0,5627648.0,2251.0,2701.0,0.0
10144130000,0.010265421947697738,97414.40781440781,2262.0,2203.0,1260.0,1907.0,3496.0,15692.0,-2880.0,777.0,-625.0,-405.0,-470.0,-1411.0,-756.0,32768.0,5627648.0,2258.0,2708.0,0.0
10144386000,0.010265421947697738,97414.40781440781,2266.0,2203.0,1259.0,1907.0,3480.0,15720.0,-2972.0,758.0,-948.0,-355.0,-468.0,-1412.0,-759.0,32768.0,5628160.0,2259.0,2706.0,0.0
10144642000,0.010265421947697738,97414.40781440781,2279.0,2200.0,1262.0,1904.0,3480.0,15664.0,-2972.0,728.0,-1256.0,-216.0,-468.0,-1412.0,-759.0,32768.0,5628160.0,2266.0,2707.0,0.0
10144898000,0.010265421947697738,97414.40781440781,2265.0,2200.0,1264.0,1902.0,3408.0,15680.0,-2984.0,681.0,-1546.0,-52.0,-472.0,-1412.0,-755.0,32768.0,5627904.0,2254.0,2702.0,0.0
10145154000,0.010265421947697738,97414.40781440781,2269.0,2203.0,1266.0,1893.0,3512.0,15620.0,-3156.0,647.0,-1924.0,158.0,-469.0,-1412.0,-755.0,32768.0,5627904.0,2259.0,2708.0,0.0
10145410000,0.010265421947697738,97414.40781440781,2280.0,2201.0,1263.0,1895.0,3480.0,15668.0,-3216.0,615.0,-2312.0,375.0,-470.0,-1412.0,-757.0,32768.0,5627904.0,2266.0,2707.0,0.0
10145666000,0.010265421947697738,97414.40781440781,2290.0,2195.0,1257.0,1904.0,3296.0,15816.0,-2888.0,488.0,-2522.0,605.0,-470.0,-1412.0,-757.0,32768.0,5627904.0,2270.0,2707.0,0.0
10145922000,0.010265421947697738,97414.40781440781,2264.0,2193.0,1255.0,1907.0,3256.0,15824.0,-2788.0,73.0,-2479.0,941.0,-469.0,-1415.0,-759.0,32768.0,5628160.0,2247.0,2700.0,0.0
10146178000,0.010265627820227424,97412.4542124542,2270.0,2193.0,1255.0,1912.0,3268.0,15784.0,-2692.0,-180.0,-2303.0,1031.0,-463.0,-1410.0,-757.0,32768.0,5628160.0,2261.0,2707.0,0.0
10146434000,0.010265421947697738,97414.40781440781,2258.0,2193.0,1258.0,1913.0,3288.0,15692.0,-2640.0,-157.0,-2115.0,949.0,-471.0,-1410.0,-764.0,32768.0,5628160.0,2251.0,2702.0,0.0
10146690000,0.010265421947697738,97414.40781440781,2253.0,2181.0,1259.0,1901.0,3140.0,15672.0,-2892.0,-297.0,-1998.0,850.0,-467.0,-1412.0,-752.0,32768.0,5628160.0,2256.0,2706.0,0.0
10146946000,0.010265421947697738,97414.40781440781,2228.0,2173.0,1255.0,1890.0,2888.0,15808.0,-3204.0,-320.0,-1941.0,774.0,-467.0,-1412.0,-752.0,32768.0,5627904.0,2241.0,2700.0,0.0
10147202000,0.010265421947697738,97414.40781440781,2238.0,2158.0,1250.0,1881.0,2688.0,15900.0,-3288.0,-309.0,-1969.0,735.0,-473.0,-1415.0,-760.0,32768.0,5627904.0,2253.0,2708.0,0.0
10147458000,0.010265421947697738,97414.40781440781,2254.0,2155.0,1253.0,1870.0,2576.0,15832.0,-3548.0,-290.0,-2177.0,791.0,-469.0,-1414.0,-758.0,32768.0,5627904.0,2259.0,2708.0,0.0
10147714000,0.010265421947697738,97414.40781440781,2264.0,2146.0,1257.0,1850.0,2368.0,15756.0,-3888.0,-290.0,-2177.0,791.0,-473.0,-1412.0,-750.0,32768.0,5627904.0,2261.0,2708.0,0.0
10147970000,0.010265421947697738,97414.40781440781,2239.0,2168.0,1245.0,1855.0,2624.0,15924.0,-4004.0,-432.0,-2361.0,736.0,-484.0,-1417.0,-757.0,32768.0,5628160.0,2243.0,2700.0,0.0
10148226000,0.010265421947697738,97414.40781440781,2244.0,2173.0,1242.0,1872.0,2840.0,16044.0,-3552.0,-364.0,-2546.0,778.0,-484.0,-1417.0,-757.0,32768.0,5628160.0,2254.0,2708.0,0.0
10148482000,0.010265421947697738,97414.40781440781,2261.0,2155.0,1256.0,1860.0,2576.0,15828.0,-3708.0,116.0,-2521.0,924.0,-481.0,-1414.0,-750.0,32768.0,5627392.0,2264.0,2707.0,0.0
10148738000,0.010265421947697738,97414.40781440781,2273.0,2141.0,1259.0,1853.0,2228.0,15700.0,-3956.0,71.0,-2564.0,898.0,-481.0,-1409.0,-750.0,32768.0,5627392.0,2263.0,2708.0,0.0
10148994000,0.010265421947697738,97414.40781440781,2260.0,2187.0,1244.0,1879.0,3004.0,15964.0,-3504.0,-171.0,-2841.0,864.0,-479.0,-1412.0,-760.0,32768.0,5627904.0,2251.0,2701.0,0.0
10149250000,0.010265421947697738,97414.40781440781,2273.0,2169.0,1247.0,1866.0,2824.0,15988.0,-3628.0,668.0,-3044.0,1081.0,-479.0,-1412.0,-760.0,32768.0,5627904.0,2263.0,2707.0,0.0
10149506000,0.010265421947697738,97414.40781440781,2282.0,2149.0,1254.0,1867.0,2408.0,15816.0,-3684.0,901.0,-3147.0,1211.0,-483.0,-1413.0,-758.0,32768.0,5627648.0,2263.0,2708.0,0.0
10149762000,0.010265421947697738,97414.40781440781,2285.0,2156.0,1255.0,1868.0,2496.0,15764.0,-3576.0,879.0,-3248.0,1266.0,-480.0,-1412.0,-756.0,32768.0,5627648.0,2263.0,2708.0,0.0
10150018000,0.010265421947697738,97414.40781440781,2247.0,2159.0,1248.0,1864.0,2592.0,15872.0,-3592.0,972.0,-3110.0,1182.0,-478.0,-1413.0,-759.0,32768.0,5628416.0,2244.0,2700.0,0.0
10150274000,0.010265421947697738,97414.40781440781,2255.0,2152.0,1253.0,1864.0,2508.0,15756.0,-3580.0,1099.0,-2714.0,1048.0,-470.0,-1417.0,-756.0,32768.0,5628416.0,2260.0,2707.0,0.0
10150530000,0.010265421947697738,97414.40781440781,2277.0,2151.0,1252.0,1868.0,2508.0,15812.0,-3584.0,985.0,-2397.0,901.0,-470.0,-1417.0,-756.0,32768.0,5627904.0,2267.0,2707.0,0.0
10150786000,0.010265421947697738,97414.40781440781,2285.0,2151.0,1248.0,1869.0,2484.0,15840.0,-3556.0,948.0,-2146.0,734.0,-477.0,-1408.0,-759.0,32768.0,5627904.0,2265.0,2708.0,0.0
10151042000,0.010265421947697738,97414.40781440781,2266.0,2140.0,1247.0,1864.0,2240.0,15976.0,-3604.0,1016.0,-2044.0,673.0,-467.0,-1412.0,-757.0,32768.0,5627904.0,2251.0,2701.0,0.0
10151298000,0.010265421947697738,97414.40781440781,2264.0,2133.0,1238.0,1873.0,2084.0,16140.0,-3412.0,1026.0,-1936.0,620.0,-467.0,-1412.0,-762.0,32768.0,5627904.0,2257.0,2708.0,0.0
10151554000,0.010265421947697738,97414.40781440781,2275.0,2130.0,1244.0,1864.0,2104.0,16056.0,-3664.0,1000.0,-1810.0,858.0,-476.0,-1410.0,-757.0,32768.0,5627648.0,2266.0,2707.0,0.0
10151810000,0.010265421947697738,97414.40781440781,2242.0,2134.0,1248.0,1852.0,2248.0,15948.0,-3816.0,881.0,-1818.0,956.0,-476.0,-1410.0,-757.0,32768.0,5627648.0,2468.0,2687.0,0.0
10152066000,0.010265421947697738,97414.40781440781,2205.0,2147.0,1244.0,1867.0,2496.0,16036.0,-3492.0,826.0,-1783.0,817.0,-488.0,-1417.0,-760.0,32768.0,5628160.0,2343.0,2701.0,0.0
10152322000,0.010265421947697738,97414.40781440781,2106.0,2136.0,1256.0,1864.0,2156.0,15760.0,-3596.0,1072.0,-1623.0,758.0,-466.0,-1414.0,-762.0,32768.0,5628160.0,2305.0,2707.0,0.0
10152578000,0.010265421947697738,97414.40781440781,2229.0,2136.0,1255.0,1862.0,2204.0,15772.0,-3748.0,984.0,-1525.0,700.0,-477.0,-1413.0,-762.0,32768.0,5627648.0,2287.0,2707.0,0.0
10152834000,0.010265421947697738,97414.40781440781,2281.0,2136.0,1252.0,1862.0,2164.0,15868.0,-3696.0,914.0,-1407.0,635.0,-477.0,-1413.0,-762.0,32768.0,5627648.0,2279.0,2707.0,0.0
10153090000,0.010265421947697738,97414.40781440781,2275.0,2139.0,1259.0,1867.0,2216.0,15748.0,-3652.0,947.0,-1349.0,600.0,-461.0,-1405.0,-760.0,32768.0,5628160.0,2260.0,2702.0,0.0
10153346000,0.010265421947697738,97414.40781440781,2288.0,2130.0,1258.0,1863.0,2064.0,15708.0,-3624.0,997.0,-1358.0,582.0,-471.0,-1413.0,-763.0,32768.0,5628160.0,2267.0,2707.0,0.0
10153602000,0.010265421947697738,97414.40781440781,2296.0,2128.0,1252.0,1866.0,2020.0,15740.0,-3680.0,1060.0,-1356.0,489.0,-479.0,-1417.0,-765.0,32768.0,5627392.0,2270.0,2707.0,0.0
10153858000,0.010265421947697738,97414.40781440781,2300.0,2112.0,1246.0,1876.0,1748.0,15944.0,-3460.0,1080.0,-1340.0,472.0,-471.0,-1412.0,-763.0,32768.0,5627392.0,2272.0,2707.0,0.0
10154114000,0.010265421947697738,97414.40781440781,2262.0,2110.0,1243.0,1878.0,1660.0,16004.0,-3340.0,1005.0,-1173.0,497.0,-471.0,-1412.0,-763.0,32768.0,5627392.0,2248.0,2700.0,0.0
10154370000,0.010265421947697738,97414.40781440781,2259.0,2119.0,1245.0,1867.0,1824.0,15980.0,-3584.0,1007.0,-1114.0,634.0,-476.0,-1415.0,-765.0,32768.0,5627392.0,2256.0,2708.0,0.0
10154626000,0.010265421947697738,97414.40781440781,2261.0,2116.0,1249.0,1855.0,1800.0,15832.0,-3860.0,1067.0,-1203.0,640.0,-480.0,-1414.0,-770.0,32768.0,5628160.0,2260.0,2708.0,0.0
10154882000,0.010265421947697738,97414.40781440781,2268.0,2116.0,1251.0,1856.0,1820.0,15876.0,-3888.0,1126.0,-1284.0,560.0,-471.0,-1407.0,-766.0,32768.0,5628160.0,2262.0,2708.0,0.0
10155138000,0.010265421947697738,97414.40781440781,2241.0,2120.0,1248.0,1862.0,1876.0,15884.0,-3708.0,1120.0,-1339.0,517.0,-478.0,-1413.0,-764.0,32768.0,5628416.0,2243.0,2700.0,0.0
10155394000,0.010265421947697738,97414.40781440781,2258.0,2122.0,1244.0,1860.0,1940.0,15960.0,-3644.0,1245.0,-1322.0,516.0,-478.0,-1413.0,-764.0,32768.0,5628416.0,2259.0,2707.0,0.0
10155650000,0.010265421947697738,97414.40781440781,2267.0,2119.0,1248.0,1866.0,1820.0,15824.0,-3592.0,1261.0,-1191.0,418.0,-477.0,-1409.0,-760.0,32768.0,5627904.0,2261.0,2708.0,0.0
10155906000,0.010265421947697738,97414.40781440781,2283.0,2116.0,1249.0,1870.0,1820.0,15848.0,-3520.0,1207.0,-1057.0,324.0,-470.0,-1403.0,-767.0,32768.0,5627904.0,2267.0,2707.0,0.0
10156162000,0.010265421947697738,97414.40781440781,2253.0,2115.0,1248.0,1872.0,1752.0,15856.0,-3488.0,1222.0,-973.0,248.0,-480.0,-1413.0,-764.0,32768.0,5627648.0,2246.0,2700.0,0.0
10156418000,0.010265421947697738,97414.40781440781,2257.0,2114.0,1250.0,1874.0,1768.0,15940.0,-3464.0,1163.0,-915.0,240.0,-480.0,-1413.0,-764.0,32768.0,5627648.0,2260.0,2707.0,0.0
10156674000,0.010265421947697738,97414.40781440781,2268.0,2111.0,1252.0,1873.0,1656.0,15848.0,-3416.0,1135.0,-874.0,219.0,-482.0,-1411.0,-767.0,32768.0,5627648.0,2262.0,2708.0,0.0
10156930000,0.010265421947697738,97414.40781440781,2235.0,2112.0,1253.0,1872.0,1708.0,15780.0,-3428.0,1019.0,-776.0,163.0,-481.0,-1417.0,-761.0,32768.0,5627648.0,2466.0,2687.0,0.0
10157186000,0.010265421947697738,97414.40781440781,2201.0,2115.0,1255.0,1877.0,1740.0,15772.0,-3412.0,928.0,-700.0,90.0,-479.0,-1408.0,-763.0,32768.0,5628160.0,2343.0,2701.0,0.0
10157442000,0.010265421947697738,97414.40781440781,2294.0,2117.0,1256.0,1877.0,1768.0,15804.0,-3348.0,826.0,-571.0,59.0,-475.0,-1412.0,-763.0,32768.0,5628160.0,2298.0,2706.0,0.0
10157698000,0.010265421947697738,97414.40781440781,2324.0,2116.0,1253.0,1879.0,1780.0,15776.0,-3328.0,715.0,-425.0,-14.0,-475.0,-1412.0,-763.0,32768.0,5628416.0,2285.0,2707.0,0.0
10157954000,0.010265421947697738,97414.40781440781,2290.0,2116.0,1252.0,1876.0,1804.0,15788.0,-3392.0,613.0,-318.0,-17.0,-478.0,-1410.0,-765.0,32768.0,5628416.0,2477.0,2687.0,0.0
10158210000,0.010265421947697738,97414.40781440781,2224.0,2115.0,1249.0,1877.0,1792.0,15968.0,-3400.0,517.0,-215.0,13.0,-472.0,-1405.0,-761.0,32768.0,5627392.0,2341.0,2700.0,0.0
10158466000,0.010265421947697738,97414.40781440781,2110.0,2114.0,1248.0,1872.0,1732.0,15972.0,-3452.0,485.0,-184.0,107.0,-470.0,-1410.0,-763.0,32768.0,5627392.0,2304.0,2707.0,0.0
10158722000,0.010265421947697738,97414.40781440781,2231.0,2116.0,1247.0,1865.0,1756.0,15944.0,-3684.0,536.0,-225.0,120.0,-475.0,-1408.0,-766.0,32768.0,5627648.0,2287.0,2707.0,0.0
10158978000,0.010265421947697738,97414.40781440781,2272.0,2114.0,1246.0,1863.0,1772.0,15944.0,-3704.0,550.0,-257.0,134.0,-475.0,-1408.0,-766.0,32768.0,5627648.0,2274.0,2708.0,0.0
10159234000,0.010265421947697738,97414.40781440781,2253.0,2113.0,1244.0,1861.0,1708.0,15904.0,-3740.0,563.0,-314.0,106.0,-470.0,-1408.0,-760.0,32768.0,5627648.0,2249.0,2700.0,0.0
10159490000,0.010265421947697738,97414.40781440781,2257.0,2113.0,1247.0,1857.0,1764.0,15960.0,-3724.0,671.0,-352.0,85.0,-472.0,-1407.0,-764.0,32768.0,5627648.0,2257.0,2708.0,0.0
10159746000,0.010265421947697738,97414.40781440781,2273.0,2111.0,1248.0,1858.0,1656.0,15956.0,-3760.0,754.0,-441.0,121.0,-475.0,-1412.0,-760.0,32768.0,5628416.0,2266.0,2707.0,0.0
10160002000,0.010265421947697738,97414.40781440781,2286.0,2109.0,1249.0,1861.0,1612.0,15908.0,-3764.0,822.0,-491.0,86.0,-475.0,-1412.0,-760.0,32768.0,5628416.0,2269.0,2707.0,0.0
10160258000,0.010265421947697738,97414.40781440781,2269.0,2109.0,1249.0,1860.0,1652.0,15872.0,-3772.0,845.0,-544.0,78.0,-468.0,-1413.0,-765.0,32768.0,5628160.0,2253.0,2701.0,0.0
10160514000,0.010265421947697738,97414.40781440781,2272.0,2108.0,1252.0,1863.0,1636.0,15872.0,-3760.0,918.0,-634.0,79.0,-465.0,-1408.0,-760.0,32768.0,5628160.0,2259.0,2708.0,0.0
10160770000,0.010265421947697738,97414.40781440781,2281.0,2107.0,1250.0,1861.0,1632.0,15892.0,-3784.0,1032.0,-748.0,133.0,-473.0,-1409.0,-765.0,32768.0,5628416.0,2266.0,2707.0,0.0
10161026000,0.010265421947697738,97414.40781440781,2291.0,2105.0,1250.0,1859.0,1608.0,15860.0,-3740.0,1084.0,-818.0,151.0,-476.0,-1410.0,-766.0,32768.0,5628416.0,2270.0,2707.0,0.0
10161282000,0.010265421947697738,97414.40781440781,2270.0,2105.0,1252.0,1869.0,1572.0,15844.0,-3652.0,1074.0,-847.0,171.0,-476.0,-1410.0,-766.0,32768.0,5627904.0,2253.0,2701.0,0.0
10161538000,0.010265421947697738,97414.40781440781,2274.0,2108.0,1251.0,1874.0,1608.0,15860.0,-3476.0,1032.0,-775.0,225.0,-475.0,-1407.0,-759.0,32768.0,5627904.0,2259.0,2708.0,0.0
10161794000,0.010265421947697738,97414.40781440781,2274.0,2111.0,1252.0,1874.0,1676.0,15824.0,-3500.0,1000.0,-689.0,233.0,-474.0,-1412.0,-765.0,32768.0,5627904.0,2261.0,2708.0,0.0
10162050000,0.010265421947697738,97414.40781440781,2276.0,2111.0,1252.0,1870.0,1704.0,15824.0,-3520.0,939.0,-592.0,174.0,-479.0,-1405.0,-766.0,32768.0,5627904.0,2262.0,2708.0,0.0
10162306000,0.010265421947697738,97414.40781440781,2246.0,2107.0,1248.0,1874.0,1564.0,15940.0,-3440.0,897.0,-468.0,97.0,-479.0,-1405.0,-766.0,32768.0,5627904.0,2243.0,2700.0,0.0
10162562000,0.010265421947697738,97414.40781440781,2248.0,2108.0,1244.0,1869.0,1568.0,15988.0,-3532.0,840.0,-383.0,107.0,-475.0,-1408.0,-761.0,32768.0,5627904.0,2254.0,2708.0,0.0
10162818000,0.010265421947697738,97414.40781440781,2261.0,2105.0,1248.0,1866.0,1612.0,15968.0,-3700.0,860.0,-389.0,93.0,-476.0,-1408.0,-764.0,32768.0,5628416.0,2259.0,2708.0,0.0
10163074000,0.010265421947697738,97414.40781440781,2275.0,2107.0,1246.0,1860.0,1580.0,15964.0,-3756.0,950.0,-500.0,120.0,-478.0,-1408.0,-761.0,32768.0,5628416.0,2266.0,2707.0,0.0
10163330000,0.010265421947697738,97414.40781440781,2261.0,2105.0,1248.0,1858.0,1568.0,15932.0,-3824.0,994.0,-612.0,179.0,-472.0,-1401.0,-767.0,32768.0,5627648.0,2251.0,2699.0,0.0
10163586000,0.010265421947697738,97414.40781440781,2254.0,2105.0,1248.0,1858.0,1528.0,15916.0,-3784.0,1039.0,-658.0,168.0,-472.0,-1401.0,-767.0,32768.0,5627648.0,2256.0,2706.0,0.0
10163842000,0.010265421947697738,97414.40781440781,2261.0,2105.0,1251.0,1863.0,1600.0,15888.0,-3752.0,1064.0,-742.0,187.0,-475.0,-1406.0,-767.0,32768.0,5627904.0,2260.0,2708.0,0.0
10164098000,0.010265421947697738,97414.40781440781,2268.0,2105.0,1251.0,1867.0,1552.0,15880.0,-3576.0,1100.0,-745.0,185.0,-475.0,-1406.0,-762.0,32768.0,5627904.0,2262.0,2708.0,0.0
10164354000,0.010265421947697738,97414.40781440781,2243.0,2101.0,1248.0,1872.0,1436.0,15904.0,-3444.0,1037.0,-685.0,207.0,-475.0,-1413.0,-765.0,32768.0,5627904.0,2243.0,2700.0,0.0
10164610000,0.010265421947697738,97414.40781440781,2256.0,2100.0,1248.0,1880.0,1460.0,15908.0,-3360.0,1037.0,-685.0,207.0,-483.0,-1406.0,-765.0,32768.0,5627904.0,2259.0,2707.0,0.0
10164866000,0.010265421947697738,97414.40781440781,2273.0,2101.0,1250.0,1878.0,1500.0,15864.0,-3424.0,963.0,-554.0,203.0,-483.0,-1406.0,-765.0,33592.0,5627904.0,2266.0,2707.0,0.0
10165122000,0.010265421947697738,97414.40781440781,2282.0,2101.0,1251.0,1873.0,1532.0,15844.0,-3456.0,915.0,-488.0,146.0,-477.0,-1412.0,-761.0,33592.0,5627904.0,2265.0,2708.0,0.0
10165378000,0.010265421947697738,97414.40781440781,2260.0,2100.0,1247.0,1871.0,1428.0,15892.0,-3508.0,872.0,-430.0,127.0,-471.0,-1413.0,-766.0,33592.0,5627904.0,2250.0,2699.0,0.0
10165634000,0.010265421947697738,97414.40781440781,2268.0,2100.0,1250.0,1867.0,1420.0,15896.0,-3544.0,851.0,-382.0,94.0,-477.0,-1402.0,-761.0,33592.0,5627904.0,2262.0,2707.0,0.0
10165890000,0.010265421947697738,97414.40781440781,2270.0,2099.0,1251.0,1864.0,1384.0,15912.0,-3676.0,870.0,-399.0,73.0,-477.0,-1402.0,-761.0,33592.0,5627392.0,2261.0,2707.0,0.0
10166146000,0.010265421947697738,97414.40781440781,2275.0,2099.0,1249.0,1863.0,1416.0,15924.0,-3664.0,900.0,-446.0,61.0,-467.0,-1406.0,-767.0,33592.0,5627392.0,2262.0,2708.0,0.0
10166402000,0.010265421947697738,97414.40781440781,2242.0,2102.0,1250.0,1866.0,1484.0,15920.0,-3676.0,929.0,-484.0,66.0,-465.0,-1406.0,-763.0,33592.0,5628160.0,2244.0,2700.0,0.0
10166658000,0.010265421947697738,97414.40781440781,2245.0,2100.0,1250.0,1869.0,1472.0,15916.0,-3608.0,958.0,-540.0,52.0,-474.0,-1417.0,-761.0,33592.0,5628160.0,2254.0,2708.0,0.0
10166914000,0.010265421947697738,97414.40781440781,2261.0,2101.0,1249.0,1867.0,1496.0,15932.0,-3568.0,939.0,-567.0,71.0,-463.0,-1406.0,-769.0,33592.0,5628160.0,2264.0,2707.0,0.0
10167170000,0.010265421947697738,97414.40781440781,2274.0,2101.0,1249.0,1867.0,1508.0,15908.0,-3600.0,993.0,-588.0,125.0,-463.0,-1406.0,-769.0,33592.0,5628160.0,2268.0,2707.0,0.0
10167426000,0.010265421947697738,97414.40781440781,2254.0,2097.0,1250.0,1870.0,1412.0,15968.0,-3568.0,1038.0,-607.0,176.0,-471.0,-1412.0,-762.0,33592.0,5627904.0,2247.0,2700.0,0.0
10167682000,0.010265421947697738,97414.40781440781,2265.0,2099.0,1249.0,1870.0,1436.0,15916.0,-3492.0,1017.0,-586.0,152.0,-471.0,-1408.0,-763.0,33592.0,5627904.0,2261.0,2707.0,0.0
10167938000,0.010265421947697738,97414.40781440781,2278.0,2098.0,1250.0,1869.0,1448.0,15860.0,-3548.0,987.0,-585.0,200.0,-468.0,-1404.0,-767.0,33592.0,5627904.0,2268.0,2709.0,0.0
10168194000,0.010265421947697738,97414.40781440781,2289.0,2098.0,1250.0,1870.0,1460.0,15856.0,-3564.0,994.0,-586.0,191.0,-465.0,-1403.0,-760.0,33592.0,5627904.0,2270.0,2707.0,0.0
10168450000,0.010265421947697738,97414.40781440781,2264.0,2101.0,1252.0,1868.0,1464.0,15832.0,-3592.0,1023.0,-597.0,194.0,-465.0,-1403.0,-760.0,33592.0,5627904.0,2252.0,2699.0,0.0
10168706000,0.010265421947697738,97414.40781440781,2265.0,2099.0,1250.0,1868.0,1464.0,15780.0,-3576.0,1009.0,-614.0,157.0,-465.0,-1403.0,-766.0,33592.0,5627904.0,2258.0,2708.0,0.0
10168962000,0.010265421947697738,97414.40781440781,2265.0,2096.0,1246.0,1873.0,1420.0,15880.0,-3532.0,1014.0,-624.0,99.0,-476.0,-1409.0,-767.0,33592.0,5628160.0,2260.0,2708.0,0.0
10169218000,0.010265421947697738,97414.40781440781,2282.0,2094.0,1246.0,1873.0,1388.0,15940.0,-3456.0,1051.0,-583.0,90.0,-469.0,-1409.0,-764.0,33592.0,5628160.0,2267.0,2707.0,0.0
10169474000,0.010265421947697738,97414.40781440781,2263.0,2092.0,1248.0,1874.0,1352.0,15904.0,-3504.0,970.0,-521.0,37.0,-469.0,-1409.0,-764.0,33592.0,5628672.0,2251.0,2699.0,0.0
10169730000,0.010265421947697738,97414.40781440781,2264.0,2093.0,1250.0,1873.0,1376.0,15872.0,-3472.0,945.0,-414.0,1.0,-474.0,-1410.0,-768.0,33592.0,5628672.0,2258.0,2708.0,0.0
10169986000,0.010265421947697738,97414.40781440781,2270.0,2095.0,1247.0,1869.0,1404.0,15972.0,-3620.0,962.0,-395.0,-4.0,-477.0,-1416.0,-766.0,33592.0,5628416.0,2261.0,2708.0,0.0
10170242000,0.010265421947697738,97414.40781440781,2274.0,2092.0,1247.0,1870.0,1324.0,15960.0,-3608.0,1003.0,-432.0,-17.0,-477.0,-1410.0,-769.0,33592.0,5628416.0,2262.0,2708.0,0.0
10170498000,0.010265421947697738,97414.40781440781,2240.0,2095.0,1247.0,1873.0,1336.0,15932.0,-3428.0,975.0,-415.0,-27.0,-482.0,-1409.0,-758.0,33592.0,5628416.0,2242.0,2698.0,0.0
10170754000,0.010265421947697738,97414.40781440781,2254.0,2098.0,1248.0,1871.0,1388.0,15916.0,-3484.0,954.0,-398.0,-6.0,-482.0,-1409.0,-758.0,33592.0,5628416.0,2259.0,2707.0,0.0
10171010000,0.010265421947697738,97414.40781440781,2273.0,2099.0,1248.0,1870.0,1488.0,15888.0,-3584.0,990.0,-466.0,16.0,-474.0,-1412.0,-767.0,33592.0,5628160.0,2266.0,2707.0,0.0
10171266000,0.010265421947697738,97414.40781440781,2276.0,2099.0,1249.0,1867.0,1480.0,15904.0,-3556.0,995.0,-460.0,23.0,-471.0,-1415.0,-768.0,33592.0,5628160.0,2264.0,2708.0,0.0
10171522000,0.010265421947697738,97414.40781440781,2248.0,2100.0,1250.0,1871.0,1480.0,15904.0,-3516.0,969.0,-473.0,13.0,-473.0,-1409.0,-769.0,33592.0,5628416.0,2245.0,2700.0,0.0
10171778000,0.010265421947697738,97414.40781440781,2259.0,2101.0,1251.0,1870.0,1488.0,15808.0,-3496.0,973.0,-450.0,42.0,-480.0,-1406.0,-771.0,33592.0,5628416.0,2259.0,2707.0,0.0
10172034000,0.010265421947697738,97414.40781440781,2280.0,2098.0,1250.0,1870.0,1476.0,15864.0,-3540.0,961.0,-456.0,0.0,-480.0,-1406.0,-771.0,33592.0,5628416.0,2267.0,2707.0,0.0
10172290000,0.010265421947697738,97414.40781440781,2293.0,2097.0,1246.0,1869.0,1420.0,15968.0,-3600.0,999.0,-475.0,-31.0,-473.0,-1411.0,-765.0,33592.0,5628416.0,2272.0,2709.0,0.0
10172546000,0.010265421947697738,97414.40781440781,2272.0,2095.0,1246.0,1871.0,1372.0,15956.0,-3536.0,1007.0,-489.0,-35.0,-478.0,-1412.0,-768.0,33592.0,5628416.0,2253.0,2699.0,0.0
10172802000,0.010265421947697738,97414.40781440781,2273.0,2092.0,1247.0,1870.0,1340.0,15928.0,-3500.0,1027.0,-540.0,-30.0,-472.0,-1409.0,-766.0,33592.0,5628416.0,2259.0,2708.0,0.0
10173058000,0.010265421947697738,97414.40781440781,2280.0,2092.0,1244.0,1872.0,1356.0,15968.0,-3504.0,1077.0,-567.0,-30.0,-472.0,-1409.0,-766.0,33592.0,5628160.0,2266.0,2707.0,0.0
10173314000,0.010265421947697738,97414.40781440781,2281.0,2091.0,1245.0,1875.0,1316.0,15988.0,-3512.0,1122.0,-632.0,4.0,-468.0,-1411.0,-770.0,33592.0,5628160.0,2264.0,2708.0,0.0
10173570000,0.010265421947697738,97414.40781440781,2259.0,2091.0,1246.0,1876.0,1292.0,16008.0,-3460.0,1117.0,-615.0,30.0,-468.0,-1410.0,-769.0,33592.0,5627904.0,2250.0,2699.0,0.0
10173826000,0.010265421947697738,97414.40781440781,2268.0,2097.0,1249.0,1876.0,1376.0,15880.0,-3380.0,1096.0,-605.0,24.0,-473.0,-1408.0,-773.0,33592.0,5627904.0,2262.0,2707.0,0.0
10174082000,0.010265421947697738,97414.40781440781,2279.0,2099.0,1250.0,1876.0,1468.0,15868.0,-3404.0,1096.0,-581.0,29.0,-472.0,-1409.0,-768.0,33592.0,5627904.0,2268.0,2707.0,0.0
10174338000,0.010265421947697738,97414.40781440781,2283.0,2098.0,1248.0,1873.0,1420.0,15896.0,-3444.0,1082.0,-522.0,-42.0,-472.0,-1409.0,-768.0,33592.0,5627904.0,2265.0,2708.0,0.0
10174594000,0.010265421947697738,97414.40781440781,2248.0,2096.0,1246.0,1875.0,1376.0,15912.0,-3468.0,1057.0,-475.0,-66.0,-482.0,-1402.0,-768.0,33592.0,5627648.0,2244.0,2698.0,0.0
10174850000,0.010265421947697738,97414.40781440781,2249.0,2094.0,1246.0,1877.0,1340.0,15912.0,-3416.0,1026.0,-425.0,-74.0,-473.0,-1399.0,-768.0,33592.0,5627648.0,2254.0,2708.0,0.0
10175106000,0.010265421947697738,97414.40781440781,2260.0,2093.0,1246.0,1875.0,1344.0,15956.0,-3388.0,1017.0,-405.0,-124.0,-477.0,-1402.0,-774.0,33592.0,5628416.0,2259.0,2708.0,0.0
10175362000,0.010265421947697738,97414.40781440781,2274.0,2093.0,1248.0,1879.0,1396.0,15972.0,-3412.0,971.0,-376.0,-135.0,-467.0,-1409.0,-773.0,33592.0,5628416.0,2266.0,2707.0,0.0
10175618000,0.010265421947697738,97414.40781440781,2242.0,2096.0,1247.0,1881.0,1420.0,15944.0,-3372.0,929.0,-335.0,-165.0,-467.0,-1409.0,-773.0,33592.0,5627904.0,2244.0,2698.0,0.0
10175874000,0.010265421947697738,97414.40781440781,2254.0,2096.0,1246.0,1883.0,1412.0,15936.0,-3352.0,935.0,-306.0,-171.0,-472.0,-1403.0,-769.0,33592.0,5627904.0,2260.0,2707.0,0.0
10176130000,0.010265421947697738,97414.40781440781,2272.0,2097.0,1246.0,1880.0,1412.0,15960.0,-3336.0,898.0,-236.0,-173.0,-471.0,-1406.0,-769.0,33592.0,5628160.0,2268.0,2709.0,0.0
10176386000,0.010265421947697738,97414.40781440781,2293.0,2098.0,1245.0,1879.0,1448.0,15932.0,-3340.0,869.0,-202.0,-150.0,-476.0,-1406.0,-764.0,33592.0,5628160.0,2271.0,2707.0,0.0
10176642000,0.010265421947697738,97414.40781440781,2250.0,2098.0,1246.0,1878.0,1456.0,15956.0,-3432.0,850.0,-190.0,-119.0,-475.0,-1407.0,-772.0,33592.0,5628416.0,2244.0,2697.0,0.0
10176898000,0.010265421947697738,97414.40781440781,2255.0,2097.0,1247.0,1874.0,1440.0,15976.0,-3472.0,817.0,-167.0,-145.0,-475.0,-1407.0,-772.0,33592.0,5628416.0,2255.0,2708.0,0.0
10177154000,0.010265421947697738,97414.40781440781,2267.0,2097.0,1248.0,1871.0,1456.0,15972.0,-3440.0,838.0,-192.0,-118.0,-480.0,-1416.0,-770.0,33592.0,5628160.0,2264.0,2707.0,0.0
10177410000,0.010265421947697738,97414.40781440781,2279.0,2097.0,1247.0,1872.0,1404.0,15936.0,-3464.0,858.0,-249.0,-99.0,-472.0,-1406.0,-765.0,33592.0,5628160.0,2268.0,2707.0,0.0
10177666000,0.010265421947697738,97414.40781440781,2263.0,2099.0,1248.0,1873.0,1472.0,15948.0,-3440.0,865.0,-308.0,-74.0,-481.0,-1410.0,-770.0,33592.0,5628416.0,2251.0,2699.0,0.0
10177922000,0.010265421947697738,97414.40781440781,2274.0,2097.0,1248.0,1872.0,1388.0,15972.0,-3480.0,898.0,-331.0,-44.0,-481.0,-1410.0,-770.0,33592.0,5628416.0,2263.0,2707.0,0.0
10178178000,0.010265421947697738,97414.40781440781,2262.0,2096.0,1248.0,1874.0,1412.0,15924.0,-3528.0,910.0,-391.0,-30.0,-481.0,-1409.0,-768.0,33592.0,5628416.0,2251.0,2701.0,0.0
10178434000,0.010265421947697738,97414.40781440781,2263.0,2097.0,1249.0,1876.0,1416.0,15908.0,-3464.0,926.0,-376.0,-42.0,-480.0,-1410.0,-763.0,33592.0,5628416.0,2258.0,2708.0,0.0
10178690000,0.010265421947697738,97414.40781440781,2228.0,2097.0,1249.0,1875.0,1412.0,15924.0,-3388.0,923.0,-381.0,-54.0,-477.0,-1407.0,-770.0,33592.0,5628416.0,2240.0,2698.0,0.0
10178946000,0.010265421947697738,97414.40781440781,2243.0,2097.0,1249.0,1876.0,1428.0,15900.0,-3408.0,921.0,-351.0,-53.0,-477.0,-1405.0,-769.0,33592.0,5628416.0,2258.0,2707.0,0.0
10179202000,0.010265421947697738,97414.40781440781,2265.0,2098.0,1247.0,1877.0,1448.0,15892.0,-3428.0,875.0,-331.0,-32.0,-477.0,-1405.0,-769.0,33592.0,5627904.0,2266.0,2707.0,0.0
10179458000,0.010265421947697738,97414.40781440781,2273.0,2097.0,1249.0,1874.0,1424.0,15920.0,-3408.0,888.0,-329.0,-17.0,-478.0,-1409.0,-774.0,33592.0,5627904.0,2264.0,2708.0,0.0
10179714000,0.010265421947697738,97414.40781440781,2246.0,2097.0,1247.0,1872.0,1400.0,15912.0,-3468.0,873.0,-367.0,-29.0,-476.0,-1408.0,-765.0,33592.0,5628416.0,2243.0,2698.0,0.0
10179970000,0.010265421947697738,97414.40781440781,2259.0,2096.0,1246.0,1875.0,1428.0,15932.0,-3460.0,927.0,-389.0,11.0,-467.0,-1408.0,-770.0,33592.0,5628416.0,2259.0,2707.0,0.0
10180226000,0.010265421947697738,97414.40781440781,2273.0,2098.0,1248.0,1875.0,1416.0,15940.0,-3484.0,924.0,-406.0,-5.0,-468.0,-1408.0,-765.0,33592.0,5628160.0,2266.0,2707.0,0.0
10180482000,0.010265421947697738,97414.40781440781,2276.0,2098.0,1250.0,1880.0,1496.0,15888.0,-3448.0,952.0,-405.0,-34.0,-468.0,-1408.0,-765.0,33592.0,5628160.0,2264.0,2708.0,0.0
10180738000,0.010265421947697738,97414.40781440781,2248.0,2098.0,1249.0,1878.0,1456.0,15900.0,-3344.0,927.0,-402.0,-29.0,-468.0,-1406.0,-765.0,33592.0,5628416.0,2243.0,2698.0,0.0
10180994000,0.010265421947697738,97414.40781440781,2248.0,2097.0,1246.0,1877.0,1412.0,15908.0,-3424.0,920.0,-356.0,-33.0,-470.0,-1410.0,-766.0,33592.0,5628416.0,2254.0,2708.0,0.0
10181250000,0.010265421947697738,97414.40781440781,2262.0,2097.0,1250.0,1876.0,1440.0,15880.0,-3428.0,920.0,-356.0,-33.0,-469.0,-1409.0,-767.0,33592.0,5627904.0,2264.0,2707.0,0.0
10181506000,0.010265421947697738,97414.40781440781,2280.0,2095.0,1248.0,1876.0,1428.0,15896.0,-3460.0,909.0,-355.0,-64.0,-469.0,-1409.0,-767.0,33592.0,5627904.0,2269.0,2707.0,0.0
10181762000,0.010265421947697738,97414.40781440781,2246.0,2094.0,1247.0,1879.0,1400.0,15924.0,-3448.0,926.0,-338.0,-98.0,-469.0,-1410.0,-773.0,33592.0,5628416.0,2244.0,2697.0,0.0
10182018000,0.010265421947697738,97414.40781440781,2255.0,2092.0,1247.0,1878.0,1404.0,15960.0,-3404.0,928.0,-323.0,-120.0,-467.0,-1406.0,-771.0,33592.0,5628416.0,2260.0,2707.0,0.0
10182274000,0.010265421947697738,97414.40781440781,2277.0,2095.0,1248.0,1877.0,1368.0,15936.0,-3408.0,946.0,-265.0,-123.0,-472.0,-1408.0,-771.0,33592.0,5628416.0,2267.0,2707.0,0.0
10182530000,0.010265421947697738,97414.40781440781,2289.0,2096.0,1247.0,1875.0,1396.0,15920.0,-3468.0,944.0,-279.0,-107.0,-468.0,-1412.0,-766.0,33592.0,5628416.0,2270.0,2707.0,0.0
10182786000,0.010265421947697738,97414.40781440781,2240.0,2096.0,1247.0,1876.0,1424.0,15944.0,-3524.0,976.0,-277.0,-102.0,-468.0,-1412.0,-766.0,33592.0,5627904.0,2237.0,2696.0,0.0
10183042000,0.010265421947697738,97414.40781440781,2239.0,2098.0,1247.0,1877.0,1440.0,15928.0,-3432.0,1006.0,-302.0,-91.0,-470.0,-1407.0,-772.0,33592.0,5627904.0,2252.0,2708.0,0.0
10183298000,0.010265421947697738,97414.40781440781,2262.0,2098.0,1246.0,1878.0,1500.0,15952.0,-3416.0,1003.0,-353.0,-97.0,-472.0,-1405.0,-771.0,33592.0,5628160.0,2263.0,2707.0,0.0
10183554000,0.010265421947697738,97414.40781440781,2276.0,2099.0,1248.0,1880.0,1452.0,15928.0,-3420.0,1021.0,-377.0,-64.0,-474.0,-1405.0,-768.0,33592.0,5628160.0,2268.0,2707.0,0.0
10183810000,0.010265421947697738,97414.40781440781,2226.0,2101.0,1248.0,1882.0,1548.0,15912.0,-3364.0,1008.0,-397.0,-70.0,-474.0,-1405.0,-768.0,33592.0,5627904.0,2236.0,2696.0,0.0
10184066000,0.010265421947697738,97414.40781440781,2239.0,2101.0,1248.0,1880.0,1512.0,15924.0,-3344.0,965.0,-369.0,-84.0,-474.0,-1411.0,-773.0,33592.0,5627904.0,2256.0,2707.0,0.0
10184322000,0.010265421947697738,97414.40781440781,2251.0,2101.0,1246.0,1880.0,1468.0,15928.0,-3300.0,930.0,-363.0,-74.0,-476.0,-1414.0,-775.0,33592.0,5627904.0,2260.0,2708.0,0.0
10184578000,0.010265421947697738,97414.40781440781,2275.0,2099.0,1248.0,1876.0,1444.0,15928.0,-3444.0,924.0,-349.0,-80.0,-466.0,-1405.0,-763.0,33592.0,5627904.0,2267.0,2707.0,0.0
10184834000,0.010265421947697738,97414.40781440781,2226.0,2099.0,1249.0,1874.0,1504.0,15912.0,-3480.0,942.0,-381.0,-43.0,-481.0,-1399.0,-768.0,33592.0,5628160.0,2236.0,2696.0,0.0
10185090000,0.010265421947697738,97414.40781440781,2234.0,2099.0,1245.0,1877.0,1448.0,15920.0,-3460.0,965.0,-387.0,-37.0,-481.0,-1399.0,-768.0,33592.0,5628160.0,2251.0,2708.0,0.0
10185346000,0.010265421947697738,97414.40781440781,2248.0,2100.0,1248.0,1878.0,1492.0,15944.0,-3400.0,973.0,-387.0,-13.0,-476.0,-1410.0,-770.0,33592.0,5628416.0,2257.0,2708.0,0.0
10185602000,0.010265421947697738,97414.40781440781,2255.0,2098.0,1249.0,1879.0,1444.0,15888.0,-3368.0,995.0,-455.0,11.0,-476.0,-1410.0,-772.0,33592.0,5628416.0,2260.0,2708.0,0.0
10185858000,0.010265421947697738,97414.40781440781,2224.0,2097.0,1246.0,1882.0,1448.0,15940.0,-3296.0,991.0,-449.0,-17.0,-474.0,-1411.0,-763.0,33592.0,5628672.0,2240.0,2697.0,0.0
10186114000,0.010265421947697738,97414.40781440781,2241.0,2099.0,1247.0,1881.0,1488.0,15900.0,-3316.0,986.0,-455.0,-3.0,-480.0,-1411.0,-765.0,33592.0,5628672.0,2258.0,2707.0,0.0
10186370000,0.010265421947697738,97414.40781440781,2264.0,2099.0,1247.0,1881.0,1508.0,15916.0,-3304.0,968.0,-426.0,-41.0,-480.0,-1411.0,-765.0,33592.0,5628416.0,2266.0,2707.0,0.0
10186626000,0.010265421947697738,97414.40781440781,2272.0,2097.0,1248.0,1884.0,1436.0,15912.0,-3276.0,957.0,-394.0,-28.0,-474.0,-1414.0,-773.0,33592.0,5628416.0,2264.0,2708.0,0.0
10186882000,0.010265421947697738,97414.40781440781,2229.0,2095.0,1244.0,1879.0,1452.0,15952.0,-3356.0,969.0,-388.0,-57.0,-478.0,-1406.0,-769.0,33592.0,5628160.0,2235.0,2696.0,0.0
10187138000,0.010265421947697738,97414.40781440781,2239.0,2095.0,1244.0,1877.0,1460.0,15940.0,-3380.0,956.0,-406.0,-54.0,-476.0,-1414.0,-767.0,33592.0,5628160.0,2256.0,2707.0,0.0
10187394000,0.010265421947697738,97414.40781440781,2261.0,2096.0,1245.0,1879.0,1460.0,15984.0,-3380.0,966.0,-448.0,-49.0,-476.0,-1414.0,-767.0,33592.0,5628416.0,2265.0,2707.0,0.0
10187650000,0.010265421947697738,97414.40781440781,2282.0,2096.0,1246.0,1878.0,1440.0,15936.0,-3288.0,983.0,-453.0,-42.0,-494.0,-1408.0,-766.0,33592.0,5628416.0,2269.0,2707.0,0.0
10187906000,0.010265421947697738,97414.40781440781,2236.0,2097.0,1246.0,1881.0,1440.0,16008.0,-3232.0,960.0,-463.0,-62.0,-473.0,-1406.0,-772.0,33592.0,5628160.0,2237.0,2696.0,0.0
10188162000,0.010265421947697738,97414.40781440781,2241.0,2095.0,1244.0,1881.0,1412.0,16016.0,-3284.0,973.0,-468.0,-17.0,-472.0,-1410.0,-769.0,33592.0,5628160.0,2251.0,2708.0,0.0
10188418000,0.010265421947697738,97414.40781440781,2257.0,2097.0,1244.0,1880.0,1448.0,15928.0,-3296.0,910.0,-393.0,-37.0,-471.0,-1407.0,-773.0,33592.0,5628416.0,2262.0,2707.0,0.0
10188674000,0.010265421947697738,97414.40781440781,2272.0,2102.0,1247.0,1881.0,1500.0,15960.0,-3300.0,890.0,-356.0,-44.0,-471.0,-1407.0,-773.0,33592.0,5628416.0,2268.0,2707.0,0.0
10188930000,0.010265421947697738,97414.40781440781,2232.0,2102.0,1247.0,1879.0,1508.0,15932.0,-3308.0,892.0,-342.0,-45.0,-465.0,-1404.0,-768.0,33592.0,5628672.0,2237.0,2696.0,0.0
10189186000,0.010265421947697738,97414.40781440781,2240.0,2098.0,1245.0,1879.0,1464.0,15976.0,-3344.0,900.0,-348.0,-70.0,-472.0,-1406.0,-770.0,33592.0,5628672.0,2256.0,2707.0,0.0
10189442000,0.010265421947697738,97414.40781440781,2251.0,2100.0,1245.0,1876.0,1472.0,15936.0,-3436.0,932.0,-406.0,-73.0,-468.0,-1408.0,-772.0,33592.0,5628160.0,2260.0,2708.0,0.0
10189698000,0.010265421947697738,97414.40781440781,2256.0,2098.0,1245.0,1878.0,1456.0,15944.0,-3440.0,941.0,-431.0,-73.0,-466.0,-1404.0,-766.0,33592.0,5628160.0,2260.0,2706.0,0.0
10189954000,0.010265421947697738,97414.40781440781,2223.0,2098.0,1246.0,1880.0,1468.0,15932.0,-3340.0,981.0,-479.0,-48.0,-466.0,-1404.0,-766.0,33592.0,5628160.0,2238.0,2695.0,0.0
10190210000,0.010265421947697738,97414.40781440781,2230.0,2099.0,1246.0,1880.0,1480.0,15944.0,-3276.0,956.0,-452.0,-48.0,-466.0,-1407.0,-770.0,33592.0,5628160.0,2252.0,2708.0,0.0
10190466000,0.010265421947697738,97414.40781440781,2244.0,2101.0,1248.0,1882.0,1524.0,15896.0,-3300.0,952.0,-441.0,-47.0,-475.0,-1410.0,-767.0,33592.0,5628672.0,2257.0,2708.0,0.0
10190722000,0.010265421947697738,97414.40781440781,2265.0,2100.0,1248.0,1881.0,1516.0,15876.0,-3340.0,962.0,-426.0,-62.0,-480.0,-1411.0,-769.0,33592.0,5628672.0,2265.0,2707.0,0.0
10190978000,0.010265421947697738,97414.40781440781,2228.0,2100.0,1247.0,1880.0,1476.0,15924.0,-3340.0,940.0,-406.0,-92.0,-478.0,-1411.0,-769.0,33592.0,5628160.0,2240.0,2695.0,0.0
10191234000,0.010265421947697738,97414.40781440781,2238.0,2096.0,1247.0,1883.0,1428.0,15924.0,-3256.0,950.0,-369.0,-88.0,-478.0,-1411.0,-769.0,33592.0,5628160.0,2253.0,2708.0,0.0
10191490000,0.010265421947697738,97414.40781440781,2257.0,2096.0,1244.0,1887.0,1388.0,16004.0,-3180.0,894.0,-334.0,-72.0,-480.0,-1412.0,-768.0,33592.0,5628416.0,2264.0,2707.0,0.0
10191746000,0.010265421947697738,97414.40781440781,2272.0,2097.0,1247.0,1882.0,1512.0,15924.0,-3328.0,885.0,-283.0,-50.0,-480.0,-1406.0,-763.0,33592.0,5628416.0,2263.0,2708.0,0.0
10192002000,0.010265421947697738,97414.40781440781,2237.0,2101.0,1248.0,1882.0,1532.0,15896.0,-3312.0,879.0,-270.0,-93.0,-481.0,-1411.0,-770.0,33592.0,5628416.0,2239.0,2695.0,0.0
10192258000,0.010265421947697738,97414.40781440781,2247.0,2098.0,1248.0,1882.0,1496.0,15928.0,-3348.0,892.0,-271.0,-99.0,-481.0,-1411.0,-770.0,33592.0,5628416.0,2257.0,2707.0,0.0
10192514000,0.010265421947697738,97414.40781440781,2261.0,2099.0,1245.0,1878.0,1472.0,15908.0,-3348.0,864.0,-299.0,-108.0,-481.0,-1408.0,-773.0,33592.0,5628160.0,2261.0,2708.0,0.0
10192770000,0.010265421947697738,97414.40781440781,2281.0,2097.0,1247.0,1877.0,1464.0,15912.0,-3364.0,868.0,-297.0,-76.0,-474.0,-1409.0,-772.0,33592.0,5628160.0,2267.0,2707.0,0.0
10193026000,0.010265421947697738,97414.40781440781,2243.0,2096.0,1248.0,1879.0,1428.0,15880.0,-3420.0,892.0,-338.0,-110.0,-482.0,-1406.0,-765.0,33592.0,5627904.0,2241.0,2695.0,0.0
10193282000,0.010265421947697738,97414.40781440781,2251.0,2098.0,1248.0,1882.0,1472.0,15916.0,-3372.0,894.0,-343.0,-117.0,-485.0,-1408.0,-769.0,33592.0,5627904.0,2258.0,2707.0,0.0
10193538000,0.010265421947697738,97414.40781440781,2270.0,2095.0,1247.0,1882.0,1476.0,15924.0,-3340.0,922.0,-333.0,-98.0,-485.0,-1408.0,-769.0,33592.0,5628928.0,2266.0,2707.0,0.0
10193794000,0.010265421947697738,97414.40781440781,2275.0,2096.0,1246.0,1883.0,1392.0,15952.0,-3276.0,885.0,-318.0,-104.0,-475.0,-1410.0,-774.0,33592.0,5628928.0,2264.0,2708.0,0.0
10194050000,0.010265421947697738,97414.40781440781,2235.0,2098.0,1247.0,1883.0,1452.0,15920.0,-3268.0,913.0,-261.0,-93.0,-475.0,-1407.0,-771.0,33592.0,5627904.0,2240.0,2695.0,0.0
10194306000,0.010265421947697738,97414.40781440781,2248.0,2098.0,1247.0,1883.0,1468.0,15920.0,-3332.0,889.0,-231.0,-92.0,-472.0,-1406.0,-766.0,33592.0,5627904.0,2258.0,2707.0,0.0
10194562000,0.010265421947697738,97414.40781440781,2267.0,2100.0,1247.0,1877.0,1504.0,15928.0,-3412.0,933.0,-245.0,-71.0,-492.0,-1407.0,-767.0,33592.0,5628672.0,2266.0,2707.0,0.0
10194818000,0.010265421947697738,97414.40781440781,2286.0,2099.0,1249.0,1878.0,1544.0,15936.0,-3460.0,969.0,-297.0,-45.0,-492.0,-1407.0,-767.0,33592.0,5628672.0,2270.0,2707.0,0.0
10195074000,0.010265421947697738,97414.40781440781,2237.0,2102.0,1247.0,1876.0,1560.0,15896.0,-3388.0,969.0,-373.0,-52.0,-469.0,-1408.0,-764.0,33592.0,5628416.0,2235.0,2694.0,0.0
10195330000,0.010265421947697738,97414.40781440781,2243.0,2101.0,1248.0,1878.0,1584.0,15952.0,-3380.0,992.0,-391.0,4.0,-470.0,-1404.0,-761.0,33592.0,5628416.0,2256.0,2707.0,0.0
10195586000,0.010265421947697738,97414.40781440781,2265.0,2103.0,1248.0,1880.0,1552.0,15932.0,-3320.0,1000.0,-450.0,20.0,-470.0,-1404.0,-766.0,33592.0,5627904.0,2265.0,2707.0,0.0
10195842000,0.010265421947697738,97414.40781440781,2282.0,2104.0,1251.0,1886.0,1540.0,15848.0,-3272.0,969.0,-452.0,20.0,-470.0,-1404.0,-766.0,33592.0,5627904.0,2269.0,2707.0,0.0
10196098000,0.010265421947697738,97414.40781440781,2236.0,2098.0,1251.0,1884.0,1540.0,15824.0,-3216.0,951.0,-454.0,-15.0,-472.0,-1408.0,-768.0,33592.0,5629184.0,2235.0,2694.0,0.0
10196354000,0.010265421947697738,97414.40781440781,2242.0,2097.0,1249.0,1884.0,1496.0,15840.0,-3224.0,902.0,-396.0,-16.0,-472.0,-1404.0,-768.0,33592.0,5629184.0,2256.0,2707.0,0.0
10196610000,0.010265421947697738,97414.40781440781,2257.0,2097.0,1248.0,1882.0,1468.0,15852.0,-3264.0,878.0,-376.0,-31.0,-464.0,-1407.0,-772.0,33592.0,5628160.0,2259.0,2708.0,0.0
10196866000,0.010265421947697738,97414.40781440781,2277.0,2098.0,1247.0,1884.0,1428.0,15936.0,-3224.0,825.0,-298.0,1.0,-470.0,-1405.0,-768.0,33592.0,5628160.0,2267.0,2707.0,0.0
10197122000,0.010265421947697738,97414.40781440781,2225.0,2100.0,1250.0,1882.0,1444.0,15936.0,-3368.0,814.0,-261.0,2.0,-470.0,-1405.0,-768.0,33592.0,5627904.0,2233.0,2693.0,0.0
10197378000,0.010265421947697738,97414.40781440781,2230.0,2101.0,1248.0,1878.0,1560.0,15912.0,-3392.0,820.0,-246.0,-23.0,-473.0,-1411.0,-766.0,33592.0,5627904.0,2249.0,2708.0,0.0
10197634000,0.010265421947697738,97414.40781440781,2239.0,2102.0,1246.0,1876.0,1556.0,15940.0,-3368.0,840.0,-252.0,2.0,-473.0,-1404.0,-765.0,33592.0,5628416.0,2256.0,2708.0,0.0
10197890000,0.010265421947697738,97414.40781440781,2263.0,2100.0,1247.0,1874.0,1520.0,15912.0,-3468.0,864.0,-310.0,10.0,-481.0,-1403.0,-764.0,33592.0,5628416.0,2265.0,2707.0,0.0
10198146000,0.010265421947697738,97414.40781440781,2211.0,2102.0,1248.0,1874.0,1476.0,15932.0,-3492.0,864.0,-310.0,10.0,-484.0,-1404.0,-766.0,33592.0,5628672.0,2232.0,2693.0,0.0
10198402000,0.010265421947697738,97414.40781440781,2229.0,2098.0,1248.0,1875.0,1516.0,15936.0,-3436.0,936.0,-391.0,1.0,-484.0,-1404.0,-766.0,33592.0,5628672.0,2254.0,2707.0,0.0
10198658000,0.010265421947697738,97414.40781440781,2259.0,2100.0,1248.0,1877.0,1456.0,15872.0,-3400.0,991.0,-389.0,8.0,-478.0,-1410.0,-767.0,33592.0,5628672.0,2266.0,2708.0,0.0
10198914000,0.010265421947697738,97414.40781440781,2280.0,2098.0,1249.0,1880.0,1484.0,15892.0,-3376.0,976.0,-409.0,7.0,-474.0,-1406.0,-770.0,33592.0,5628672.0,2269.0,2707.0,0.0
10199170000,0.010265421947697738,97414.40781440781,2227.0,2097.0,1250.0,1883.0,1428.0,15824.0,-3260.0,996.0,-424.0,0.0,-477.0,-1407.0,-768.0,33592.0,5628416.0,2234.0,2693.0,0.0
10199426000,0.010265421947697738,97414.40781440781,2241.0,2094.0,1249.0,1884.0,1444.0,15880.0,-3280.0,988.0,-394.0,-54.0,-477.0,-1407.0,-768.0,33592.0,5628416.0,2255.0,2707.0,0.0
10199682000,0.010265421947697738,97414.40781440781,2260.0,2094.0,1246.0,1885.0,1340.0,15944.0,-3212.0,971.0,-367.0,-64.0,-476.0,-1405.0,-769.0,33592.0,5628416.0,2264.0,2707.0,0.0
10199938000,0.010265421947697738,97414.40781440781,2281.0,2096.0,1248.0,1884.0,1412.0,15924.0,-3280.0,960.0,-334.0,-20.0,-476.0,-1412.0,-772.0,33592.0,5628416.0,2269.0,2707.0,0.0
10200194000,0.010265421947697738,97414.40781440781,2234.0,2097.0,1246.0,1886.0,1436.0,15936.0,-3236.0,931.0,-305.0,-37.0,-482.0,-1404.0,-762.0,33592.0,5628672.0,2235.0,2694.0,0.0
10200450000,0.010265421947697738,97414.40781440781,2232.0,2098.0,1246.0,1886.0,1492.0,15952.0,-3300.0,927.0,-254.0,-34.0,-482.0,-1411.0,-771.0,33592.0,5628672.0,2249.0,2706.0,0.0
10200706000,0.010265421947697738,97414.40781440781,2252.0,2099.0,1243.0,1882.0,1468.0,15984.0,-3292.0,948.0,-255.0,-24.0,-482.0,-1411.0,-771.0,33592.0,5628672.0,2261.0,2707.0,0.0
10200962000,0.010265421947697738,97414.40781440781,2272.0,2101.0,1242.0,1882.0,1492.0,16004.0,-3348.0,956.0,-272.0,-42.0,-474.0,-1406.0,-767.0,33592.0,5628672.0,2268.0,2707.0,0.0
10201218000,0.010265421947697738,97414.40781440781,2229.0,2102.0,1244.0,1881.0,1488.0,16044.0,-3388.0,970.0,-316.0,-23.0,-477.0,-1410.0,-764.0,33592.0,5627904.0,2235.0,2694.0,0.0
10201474000,0.010265421947697738,97414.40781440781,2244.0,2101.0,1243.0,1880.0,1512.0,15992.0,-3288.0,994.0,-365.0,10.0,-472.0,-1405.0,-775.0,33592.0,5627904.0,2255.0,2707.0,0.0
10201730000,0.010265421947697738,97414.40781440781,2264.0,2098.0,1243.0,1886.0,1468.0,15980.0,-3300.0,996.0,-373.0,17.0,-469.0,-1403.0,-770.0,33592.0,5628416.0,2265.0,2707.0,0.0
10201986000,0.010265421947697738,97414.40781440781,2283.0,2102.0,1245.0,1883.0,1552.0,15944.0,-3280.0,986.0,-387.0,43.0,-469.0,-1403.0,-770.0,33592.0,5628416.0,2269.0,2707.0,0.0
10202242000,0.010265421947697738,97414.40781440781,2232.0,2098.0,1247.0,1886.0,1492.0,15952.0,-3188.0,987.0,-396.0,40.0,-468.0,-1408.0,-771.0,33592.0,5628160.0,2236.0,2694.0,0.0
10202498000,0.010265421947697738,97414.40781440781,2245.0,2098.0,1244.0,1889.0,1412.0,15928.0,-3208.0,983.0,-398.0,42.0,-474.0,-1410.0,-774.0,33592.0,5628160.0,2255.0,2707.0,0.0
10202754000,0.010265421947697738,97414.40781440781,2253.0,2096.0,1246.0,1889.0,1460.0,15960.0,-3160.0,977.0,-398.0,48.0,-472.0,-1412.0,-769.0,33592.0,5627904.0,2258.0,2706.0,0.0
10203010000,0.010265421947697738,97414.40781440781,2270.0,2095.0,1243.0,1888.0,1440.0,15956.0,-3216.0,934.0,-397.0,14.0,-472.0,-1412.0,-769.0,33592.0,5627904.0,2266.0,2707.0,0.0
10203266000,0.010265421947697738,97414.40781440781,2224.0,2096.0,1243.0,1889.0,1440.0,15936.0,-3208.0,930.0,-387.0,16.0,-474.0,-1409.0,-769.0,33592.0,5628160.0,2234.0,2694.0,0.0
10203522000,0.010265421947697738,97414.40781440781,2241.0,2097.0,1244.0,1890.0,1468.0,16028.0,-3152.0,944.0,-414.0,-31.0,-472.0,-1410.0,-771.0,33592.0,5628160.0,2255.0,2707.0,0.0
10203778000,0.010265421947697738,97414.40781440781,2256.0,2099.0,1245.0,1888.0,1496.0,15948.0,-3168.0,928.0,-376.0,-18.0,-471.0,-1406.0,-768.0,33592.0,5627904.0,2259.0,2708.0,0.0
10204034000,0.010265421947697738,97414.40781440781,2276.0,2103.0,1244.0,1887.0,1520.0,15964.0,-3192.0,927.0,-380.0,-40.0,-472.0,-1402.0,-771.0,33592.0,5627904.0,2267.0,2707.0,0.0
10204290000,0.010265421947697738,97414.40781440781,2225.0,2099.0,1244.0,1887.0,1504.0,15992.0,-3252.0,939.0,-364.0,-73.0,-472.0,-1402.0,-771.0,33592.0,5628672.0,2233.0,2693.0,0.0
10204546000,0.010265421947697738,97414.40781440781,2237.0,2097.0,1240.0,1886.0,1464.0,16092.0,-3176.0,941.0,-354.0,-72.0,-472.0,-1409.0,-774.0,33592.0,5628672.0,2254.0,2707.0,0.0
10204802000,0.010265421947697738,97414.40781440781,2256.0,2099.0,1243.0,1884.0,1488.0,16044.0,-3200.0,914.0,-296.0,-31.0,-470.0,-1407.0,-773.0,33592.0,5628416.0,2264.0,2707.0,0.0
10205058000,0.010265421947697738,97414.40781440781,2279.0,2100.0,1245.0,1885.0,1540.0,15980.0,-3256.0,878.0,-350.0,-32.0,-479.0,-1408.0,-774.0,33592.0,5628416.0,2269.0,2707.0,0.0
10205314000,0.010265421947697738,97414.40781440781,2216.0,2099.0,1245.0,1885.0,1508.0,15964.0,-3244.0,881.0,-365.0,-20.0,-480.0,-1403.0,-771.0,33592.0,5628672.0,2227.0,2692.0,0.0
10205570000,0.010265421947697738,97414.40781440781,2226.0,2097.0,1245.0,1885.0,1480.0,15988.0,-3212.0,898.0,-397.0,31.0,-480.0,-1403.0,-771.0,33592.0,5628672.0,2252.0,2707.0,0.0
10205826000,0.010265421947697738,97414.40781440781,2255.0,2097.0,1246.0,1883.0,1468.0,15884.0,-3216.0,869.0,-410.0,45.0,-479.0,-1406.0,-771.0,33592.0,5628672.0,2263.0,2707.0,0.0
10206082000,0.010265421947697738,97414.40781440781,2270.0,2098.0,1246.0,1888.0,1484.0,15896.0,-3176.0,867.0,-400.0,26.0,-475.0,-1405.0,-774.0,33592.0,5628672.0,2263.0,2708.0,0.0
10206338000,0.010265421947697738,97414.40781440781,2206.0,2097.0,1246.0,1886.0,1460.0,15908.0,-3200.0,863.0,-418.0,31.0,-484.0,-1403.0,-774.0,33592.0,5628160.0,2225.0,2692.0,0.0
10206594000,0.010265421947697738,97414.40781440781,2223.0,2095.0,1245.0,1887.0,1428.0,15960.0,-3244.0,864.0,-397.0,-7.0,-484.0,-1403.0,-774.0,33592.0,5628160.0,2251.0,2707.0,0.0
10206850000,0.010265421947697738,97414.40781440781,2242.0,2095.0,1245.0,1886.0,1380.0,15960.0,-3232.0,899.0,-419.0,-3.0,-479.0,-1403.0,-771.0,33592.0,5628416.0,2257.0,2708.0,0.0
10207106000,0.010265421947697738,97414.40781440781,2252.0,2093.0,1246.0,1885.0,1408.0,16008.0,-3264.0,875.0,-402.0,15.0,-478.0,-1410.0,-767.0,33592.0,5628416.0,2260.0,2708.0,0.0
10207362000,0.010265421947697738,97414.40781440781,2216.0,2095.0,1243.0,1886.0,1404.0,15992.0,-3208.0,866.0,-390.0,-10.0,-477.0,-1412.0,-771.0,33592.0,5628160.0,2459.0,2686.0,0.0
10207618000,0.010265421947697738,97414.40781440781,2200.0,2096.0,1244.0,1886.0,1404.0,15928.0,-3296.0,868.0,-360.0,-18.0,-471.0,-1410.0,-770.0,33592.0,5628160.0,2350.0,2706.0,0.0
10207874000,0.010265421947697738,97414.40781440781,2106.0,2097.0,1246.0,1885.0,1444.0,15940.0,-3280.0,854.0,-346.0,-42.0,-471.0,-1410.0,-770.0,33592.0,5628672.0,2308.0,2707.0,0.0
10208130000,0.010265421947697738,97414.40781440781,2220.0,2096.0,1245.0,1886.0,1440.0,15932.0,-3264.0,839.0,-303.0,-29.0,-485.0,-1404.0,-778.0,33592.0,5628672.0,2284.0,2708.0,0.0
10208386000,0.010265421947697738,97414.40781440781,2195.0,2098.0,1246.0,1884.0,1444.0,15892.0,-3312.0,839.0,-312.0,-36.0,-475.0,-1408.0,-767.0,33592.0,5627904.0,2234.0,2692.0,0.0
10208642000,0.010265421947697738,97414.40781440781,2225.0,2098.0,1246.0,1883.0,1452.0,15912.0,-3280.0,857.0,-302.0,-69.0,-478.0,-1409.0,-770.0,33592.0,5627904.0,2255.0,2707.0,0.0
10208898000,0.010265421947697738,97414.40781440781,2248.0,2095.0,1246.0,1881.0,1460.0,15964.0,-3340.0,863.0,-318.0,-48.0,-468.0,-1403.0,-770.0,33592.0,5628416.0,2264.0,2707.0,0.0
10209154000,0.010265421947697738,97414.40781440781,2275.0,2096.0,1244.0,1884.0,1416.0,16004.0,-3332.0,867.0,-353.0,-33.0,-468.0,-1403.0,-770.0,33592.0,5628416.0,2269.0,2707.0,0.0
10209410000,0.010265421947697738,97414.40781440781,2216.0,2096.0,1244.0,1882.0,1404.0,15976.0,-3288.0,896.0,-350.0,-35.0,-467.0,-1411.0,-773.0,33592.0,5627904.0,2227.0,2692.0,0.0
10209666000,0.010265421947697738,97414.40781440781,2222.0,2097.0,1245.0,1886.0,1428.0,15976.0,-3228.0,865.0,-363.0,-38.0,-474.0,-1410.0,-765.0,33592.0,5627904.0,2247.0,2708.0,0.0
10209922000,0.010265421947697738,97414.40781440781,2241.0,2098.0,1247.0,1886.0,1440.0,15948.0,-3244.0,877.0,-356.0,-51.0,-471.0,-1408.0,-772.0,33592.0,5628416.0,2260.0,2707.0,0.0
10210178000,0.010265421947697738,97414.40781440781,2268.0,2101.0,1247.0,1884.0,1488.0,15924.0,-3252.0,855.0,-360.0,-65.0,-471.0,-1408.0,-772.0,33592.0,5628416.0,2267.0,2707.0,0.0
10210434000,0.010265421947697738,97414.40781440781,2223.0,2099.0,1248.0,1886.0,1460.0,15932.0,-3224.0,861.0,-345.0,-75.0,-470.0,-1403.0,-764.0,33592.0,5628160.0,2233.0,2693.0,0.0
10210690000,0.010265421947697738,97414.40781440781,2228.0,2097.0,1247.0,1886.0,1424.0,15916.0,-3264.0,878.0,-360.0,-85.0,-466.0,-1413.0,-764.0,33592.0,5628160.0,2250.0,2708.0,0.0
10210946000,0.010265421947697738,97414.40781440781,2250.0,2096.0,1246.0,1885.0,1432.0,15944.0,-3244.0,880.0,-363.0,-79.0,-475.0,-1410.0,-773.0,33592.0,5629184.0,2262.0,2707.0,0.0
10211202000,0.010265421947697738,97414.40781440781,2269.0,2099.0,1246.0,1884.0,1428.0,15936.0,-3256.0,859.0,-334.0,-99.0,-468.0,-1405.0,-769.0,33592.0,5629184.0,2268.0,2707.0,0.0
10211458000,0.010265421947697738,97414.40781440781,2212.0,2098.0,1247.0,1883.0,1448.0,15960.0,-3288.0,868.0,-339.0,-80.0,-468.0,-1405.0,-769.0,33592.0,5628928.0,2227.0,2692.0,0.0
10211714000,0.010265421947697738,97414.40781440781,2222.0,2099.0,1246.0,1883.0,1432.0,15956.0,-3292.0,883.0,-356.0,-74.0,-474.0,-1406.0,-772.0,33592.0,5628928.0,2247.0,2708.0,0.0
10211970000,0.010265421947697738,97414.40781440781,2246.0,2097.0,1246.0,1880.0,1436.0,15952.0,-3276.0,888.0,-327.0,-67.0,-477.0,-1408.0,-775.0,33592.0,5628416.0,2261.0,2707.0,0.0
10212226000,0.010265421947697738,97414.40781440781,2260.0,2098.0,1245.0,1884.0,1416.0,15964.0,-3224.0,879.0,-329.0,-60.0,-477.0,-1411.0,-772.0,33592.0,5628416.0,2262.0,2708.0,0.0
10212482000,0.010265421947697738,97414.40781440781,2207.0,2099.0,1245.0,1887.0,1488.0,15972.0,-3260.0,849.0,-310.0,-35.0,-470.0,-1403.0,-765.0,33592.0,5628416.0,2229.0,2691.0,0.0
10212738000,0.010265421947697738,97414.40781440781,2227.0,2100.0,1245.0,1884.0,1496.0,15980.0,-3280.0,859.0,-300.0,-23.0,-470.0,-1403.0,-765.0,33592.0,5628416.0,2253.0,2707.0,0.0
10212994000,0.010265421947697738,97414.40781440781,2252.0,2100.0,1246.0,1881.0,1476.0,15932.0,-3268.0,873.0,-330.0,-21.0,-475.0,-1406.0,-772.0,33592.0,5628160.0,2264.0,2707.0,0.0
10213250000,0.010265421947697738,97414.40781440781,2263.0,2099.0,1244.0,1885.0,1480.0,15988.0,-3264.0,883.0,-368.0,-49.0,-474.0,-1404.0,-769.0,33592.0,5628160.0,2264.0,2708.0,0.0
10213506000,0.010265421947697738,97414.40781440781,2197.0,2097.0,1246.0,1882.0,1440.0,15988.0,-3308.0,881.0,-361.0,-12.0,-481.0,-1407.0,-767.0,33592.0,5628416.0,2224.0,2692.0,0.0
10213762000,0.010265421947697738,97414.40781440781,2218.0,2099.0,1246.0,1883.0,1456.0,15956.0,-3308.0,893.0,-366.0,9.0,-481.0,-1407.0,-767.0,33592.0,5628416.0,2251.0,2707.0,0.0
10214018000,0.010265421947697738,97414.40781440781,2247.0,2100.0,1247.0,1884.0,1464.0,15892.0,-3320.0,920.0,-371.0,-25.0,-474.0,-1417.0,-775.0,33592.0,5628928.0,2262.0,2707.0,0.0
10214274000,0.010265421947697738,97414.40781440781,2268.0,2098.0,1248.0,1883.0,1444.0,15908.0,-3244.0,919.0,-398.0,-30.0,-470.0,-1404.0,-771.0,33592.0,5628928.0,2268.0,2707.0,0.0
10214530000,0.010265421947697738,97414.40781440781,2221.0,2097.0,1246.0,1885.0,1384.0,15992.0,-3188.0,884.0,-361.0,-50.0,-480.0,-1409.0,-770.0,33592.0,5628160.0,2234.0,2693.0,0.0
10214786000,0.010265421947697738,97414.40781440781,2238.0,2097.0,1248.0,1884.0,1384.0,15952.0,-3240.0,837.0,-324.0,-75.0,-472.0,-1400.0,-769.0,33592.0,5628160.0,2255.0,2707.0,0.0
10215042000,0.010265421947697738,97414.40781440781,2257.0,2099.0,1246.0,1885.0,1432.0,15892.0,-3280.0,837.0,-324.0,-75.0,-472.0,-1400.0,-769.0,33592.0,5628416.0,2264.0,2707.0,0.0
10215298000,0.010265421947697738,97414.40781440781,2268.0,2100.0,1247.0,1885.0,1420.0,15956.0,-3268.0,853.0,-310.0,-70.0,-482.0,-1404.0,-771.0,33592.0,5628416.0,2264.0,2708.0,0.0
10215554000,0.010265421947697738,97414.40781440781,2205.0,2101.0,1247.0,1884.0,1484.0,15944.0,-3288.0,860.0,-323.0,-39.0,-479.0,-1404.0,-776.0,33592.0,5628928.0,2225.0,2692.0,0.0
10215810000,0.010265421947697738,97414.40781440781,2223.0,2102.0,1247.0,1883.0,1492.0,15956.0,-3252.0,875.0,-329.0,-43.0,-478.0,-1410.0,-771.0,33592.0,5628928.0,2251.0,2707.0,0.0
10216066000,0.010265421947697738,97414.40781440781,2186.0,2101.0,1246.0,1884.0,1452.0,16004.0,-3328.0,877.0,-343.0,-28.0,-474.0,-1406.0,-766.0,33592.0,5628928.0,2227.0,2694.0,0.0
10216322000,0.010265421947697738,97414.40781440781,2210.0,2099.0,1247.0,1884.0,1448.0,16020.0,-3256.0,907.0,-380.0,-22.0,-474.0,-1406.0,-766.0,33592.0,5628928.0,2252.0,2707.0,0.0
10216578000,0.010265421947697738,97414.40781440781,2165.0,2097.0,1245.0,1884.0,1424.0,15956.0,-3224.0,921.0,-413.0,-14.0,-471.0,-1405.0,-767.0,33592.0,5628416.0,2219.0,2692.0,0.0
10216834000,0.010265421947697738,97414.40781440781,2190.0,2097.0,1244.0,1884.0,1400.0,15972.0,-3212.0,908.0,-371.0,-49.0,-472.0,-1402.0,-771.0,33592.0,5628416.0,2248.0,2707.0,0.0
10217090000,0.010265421947697738,97414.40781440781,2229.0,2098.0,1247.0,1883.0,1412.0,15944.0,-3268.0,898.0,-335.0,-43.0,-470.0,-1408.0,-774.0,33592.0,5628672.0,2261.0,2707.0,0.0
10217346000,0.010265421947697738,97414.40781440781,2198.0,2098.0,1247.0,1884.0,1400.0,15956.0,-3280.0,890.0,-335.0,-65.0,-470.0,-1408.0,-774.0,33592.0,5628672.0,2460.0,2686.0,0.0
10217602000,0.010265421947697738,97414.40781440781,2120.0,2096.0,1249.0,1884.0,1412.0,15980.0,-3324.0,883.0,-327.0,-1.0,-468.0,-1405.0,-765.0,33592.0,5628928.0,2313.0,2692.0,0.0
10217858000,0.010265421947697738,97414.40781440781,2232.0,2099.0,1248.0,1882.0,1416.0,15932.0,-3276.0,900.0,-385.0,-9.0,-471.0,-1407.0,-775.0,33592.0,5628928.0,2286.0,2708.0,0.0
10218114000,0.010265421947697738,97414.40781440781,2271.0,2098.0,1247.0,1884.0,1456.0,15972.0,-3180.0,917.0,-401.0,4.0,-469.0,-1410.0,-771.0,33592.0,5628416.0,2273.0,2706.0,0.0
10218370000,0.010265421947697738,97414.40781440781,2279.0,2100.0,1246.0,1887.0,1480.0,15980.0,-3220.0,932.0,-433.0,13.0,-470.0,-1405.0,-765.0,33592.0,5628416.0,2266.0,2706.0,0.0
10218626000,0.010265421947697738,97414.40781440781,2225.0,2104.0,1247.0,1892.0,1528.0,15976.0,-3172.0,898.0,-430.0,20.0,-470.0,-1405.0,-765.0,33592.0,5628416.0,2231.0,2691.0,0.0
10218882000,0.010265421947697738,97414.40781440781,2225.0,2100.0,1244.0,1889.0,1520.0,15964.0,-3152.0,856.0,-372.0,37.0,-472.0,-1412.0,-772.0,33592.0,5628416.0,2248.0,2708.0,0.0
10219138000,0.010265421947697738,97414.40781440781,2248.0,2096.0,1245.0,1884.0,1428.0,15972.0,-3220.0,843.0,-317.0,27.0,-472.0,-1401.0,-764.0,33592.0,5628672.0,2261.0,2707.0,0.0
10219394000,0.010265421947697738,97414.40781440781,2269.0,2095.0,1246.0,1884.0,1432.0,15968.0,-3348.0,844.0,-301.0,-12.0,-479.0,-1410.0,-772.0,33592.0,5628672.0,2268.0,2707.0,0.0
10219650000,0.010265421947697738,97414.40781440781,2218.0,2094.0,1243.0,1878.0,1388.0,16032.0,-3440.0,832.0,-308.0,3.0,-479.0,-1406.0,-765.0,33592.0,5628416.0,2231.0,2691.0,0.0
10219906000,0.010265421947697738,97414.40781440781,2233.0,2094.0,1245.0,1882.0,1320.0,16016.0,-3380.0,884.0,-338.0,-24.0,-479.0,-1406.0,-765.0,33592.0,5628416.0,2254.0,2707.0,0.0
10220162000,0.010265421947697738,97414.40781440781,2253.0,2095.0,1244.0,1884.0,1372.0,15960.0,-3300.0,878.0,-348.0,-2.0,-484.0,-1413.0,-776.0,33592.0,5627392.0,2259.0,2708.0,0.0
10220418000,0.010265421947697738,97414.40781440781,2263.0,2099.0,1248.0,1885.0,1412.0,15880.0,-3312.0,880.0,-369.0,15.0,-479.0,-1410.0,-771.0,33592.0,5627392.0,2261.0,2708.0,0.0
10220674000,0.010265421947697738,97414.40781440781,2204.0,2100.0,1247.0,1884.0,1484.0,15852.0,-3292.0,880.0,-363.0,-18.0,-474.0,-1408.0,-767.0,33592.0,5628416.0,2228.0,2691.0,0.0
10220930000,0.010265421947697738,97414.40781440781,2223.0,2101.0,1250.0,1887.0,1484.0,15920.0,-3288.0,900.0,-351.0,-20.0,-474.0,-1408.0,-767.0,33592.0,5628416.0,2253.0,2707.0,0.0
10221186000,0.010265421947697738,97414.40781440781,2250.0,2098.0,1248.0,1887.0,1440.0,15932.0,-3216.0,880.0,-340.0,-12.0,-476.0,-1409.0,-769.0,33592.0,5627648.0,2264.0,2707.0,0.0
10221442000,0.010265421947697738,97414.40781440781,2231.0,2097.0,1245.0,1884.0,1448.0,15976.0,-3248.0,872.0,-332.0,2.0,-474.0,-1405.0,-774.0,33592.0,5627648.0,2467.0,2687.0,0.0
10221698000,0.010265421947697738,97414.40781440781,2153.0,2096.0,1246.0,1886.0,1384.0,15972.0,-3232.0,890.0,-330.0,-12.0,-474.0,-1404.0,-770.0,33592.0,5628160.0,2322.0,2691.0,0.0
10221954000,0.010265421947697738,97414.40781440781,2255.0,2097.0,1245.0,1883.0,1348.0,15956.0,-3256.0,902.0,-346.0,-24.0,-479.0,-1408.0,-766.0,33592.0,5628160.0,2289.0,2706.0,0.0
10222210000,0.010265421947697738,97414.40781440781,2284.0,2096.0,1245.0,1882.0,1384.0,15956.0,-3272.0,877.0,-352.0,-3.0,-479.0,-1408.0,-766.0,33592.0,5628672.0,2274.0,2706.0,0.0
10222466000,0.010265421947697738,97414.40781440781,2289.0,2097.0,1246.0,1884.0,1424.0,15972.0,-3248.0,894.0,-348.0,-24.0,-475.0,-1411.0,-773.0,33592.0,5628672.0,2268.0,2708.0,0.0
10222722000,0.010265421947697738,97414.40781440781,2227.0,2095.0,1245.0,1885.0,1372.0,15968.0,-3232.0,872.0,-341.0,-43.0,-477.0,-1404.0,-769.0,33592.0,5628416.0,2232.0,2691.0,0.0
10222978000,0.010265421947697738,97414.40781440781,2237.0,2097.0,1244.0,1886.0,1356.0,15992.0,-3280.0,878.0,-363.0,-33.0,-471.0,-1410.0,-768.0,33592.0,5628416.0,2254.0,2707.0,0.0
10223234000,0.010265421947697738,97414.40781440781,2255.0,2097.0,1245.0,1886.0,1404.0,15960.0,-3240.0,881.0,-352.0,-31.0,-470.0,-1410.0,-764.0,33592.0,5628416.0,2264.0,2707.0,0.0
10223490000,0.010265421947697738,97414.40781440781,2274.0,2097.0,1244.0,1885.0,1412.0,15964.0,-3196.0,901.0,-337.0,-15.0,-470.0,-1410.0,-764.0,33592.0,5628416.0,2268.0,2707.0,0.0
10223746000,0.010265421947697738,97414.40781440781,2219.0,2097.0,1244.0,1886.0,1420.0,16024.0,-3220.0,887.0,-303.0,-57.0,-470.0,-1411.0,-771.0,33592.0,5628416.0,2232.0,2691.0,0.0
10224002000,0.010265421947697738,97414.40781440781,2225.0,2097.0,1242.0,1884.0,1388.0,16000.0,-3272.0,877.0,-306.0,-27.0,-467.0,-1413.0,-769.0,33592.0,5628416.0,2249.0,2708.0,0.0
10224258000,0.010265421947697738,97414.40781440781,2249.0,2098.0,1245.0,1884.0,1380.0,15992.0,-3276.0,902.0,-306.0,-30.0,-468.0,-1412.0,-766.0,33592.0,5628416.0,2262.0,2707.0,0.0
10224514000,0.010265421947697738,97414.40781440781,2260.0,2098.0,1244.0,1885.0,1396.0,16004.0,-3264.0,922.0,-332.0,-36.0,-468.0,-1412.0,-766.0,33592.0,5628416.0,2261.0,2706.0,0.0
10224770000,0.010265421947697738,97414.40781440781,2204.0,2098.0,1244.0,1886.0,1388.0,16036.0,-3204.0,946.0,-336.0,-6.0,-468.0,-1410.0,-774.0,33592.0,5628416.0,2228.0,2691.0,0.0
10225026000,0.010265421947697738,97414.40781440781,2212.0,2096.0,1244.0,1886.0,1420.0,16024.0,-3200.0,896.0,-349.0,-9.0,-476.0,-1405.0,-772.0,33592.0,5628416.0,2248.0,2708.0,0.0
10225282000,0.010265421947697738,97414.40781440781,2241.0,2097.0,1245.0,1889.0,1388.0,15964.0,-3196.0,901.0,-351.0,-21.0,-467.0,-1411.0,-765.0,33592.0,5627904.0,2261.0,2707.0,0.0
10225538000,0.010265421947697738,97414.40781440781,2255.0,2097.0,1245.0,1888.0,1440.0,15976.0,-3176.0,886.0,-345.0,-42.0,-472.0,-1408.0,-772.0,33592.0,5627904.0,2261.0,2706.0,0.0
10225794000,0.010265421947697738,97414.40781440781,2201.0,2097.0,1246.0,1888.0,1424.0,15972.0,-3196.0,881.0,-335.0,-58.0,-472.0,-1408.0,-772.0,33592.0,5628416.0,2228.0,2691.0,0.0
10226050000,0.010265421947697738,97414.40781440781,2211.0,2096.0,1246.0,1886.0,1360.0,15968.0,-3220.0,856.0,-332.0,-55.0,-476.0,-1405.0,-774.0,33592.0,5628416.0,2248.0,2708.0,0.0
10226306000,0.010265421947697738,97414.40781440781,2240.0,2096.0,1244.0,1882.0,1444.0,15944.0,-3220.0,859.0,-327.0,-35.0,-473.0,-1410.0,-773.0,33592.0,5627904.0,2261.0,2707.0,0.0
10226562000,0.010265421947697738,97414.40781440781,2269.0,2095.0,1244.0,1884.0,1392.0,15976.0,-3296.0,827.0,-315.0,-14.0,-472.0,-1401.0,-770.0,33592.0,5627904.0,2267.0,2707.0,0.0
10226818000,0.010265421947697738,97414.40781440781,2214.0,2099.0,1247.0,1882.0,1444.0,15956.0,-3340.0,847.0,-335.0,4.0,-472.0,-1401.0,-770.0,33592.0,5628672.0,2232.0,2691.0,0.0
10227074000,0.010265421947697738,97414.40781440781,2218.0,2096.0,1244.0,1881.0,1436.0,15956.0,-3328.0,835.0,-325.0,-23.0,-478.0,-1414.0,-775.0,33592.0,5628672.0,2248.0,2708.0,0.0
10227330000,0.010265421947697738,97414.40781440781,2238.0,2097.0,1244.0,1884.0,1400.0,15988.0,-3284.0,853.0,-319.0,3.0,-478.0,-1405.0,-768.0,33592.0,5628928.0,2257.0,2708.0,0.0
10227586000,0.010265421947697738,97414.40781440781,2262.0,2098.0,1246.0,1887.0,1412.0,15956.0,-3260.0,878.0,-300.0,-41.0,-474.0,-1409.0,-769.0,33592.0,5628928.0,2265.0,2707.0,0.0
10227842000,0.010265421947697738,97414.40781440781,2200.0,2097.0,1247.0,1884.0,1388.0,15960.0,-3264.0,888.0,-312.0,-54.0,-480.0,-1407.0,-764.0,33592.0,5628928.0,2223.0,2690.0,0.0
10228098000,0.010265421947697738,97414.40781440781,2219.0,2096.0,1245.0,1886.0,1384.0,15988.0,-3232.0,904.0,-315.0,-55.0,-480.0,-1407.0,-764.0,33592.0,5628928.0,2251.0,2707.0,0.0
10228354000,0.010265421947697738,97414.40781440781,2253.0,2096.0,1248.0,1886.0,1404.0,15964.0,-3208.0,874.0,-318.0,-78.0,-476.0,-1407.0,-770.0,33592.0,5628928.0,2263.0,2707.0,0.0
10228610000,0.010265421947697738,97414.40781440781,2264.0,2099.0,1247.0,1884.0,1444.0,15916.0,-3268.0,864.0,-315.0,-82.0,-478.0,-1414.0,-771.0,33592.0,5628928.0,2262.0,2708.0,0.0
10228866000,0.010265421947697738,97414.40781440781,2211.0,2098.0,1245.0,1885.0,1436.0,15932.0,-3272.0,888.0,-325.0,-73.0,-481.0,-1411.0,-764.0,33592.0,5628416.0,2229.0,2691.0,0.0
10229122000,0.010265421947697738,97414.40781440781,2226.0,2098.0,1247.0,1883.0,1448.0,15936.0,-3288.0,863.0,-339.0,-69.0,-471.0,-1411.0,-764.0,33592.0,5628416.0,2253.0,2707.0,0.0
10229378000,0.010265421947697738,97414.40781440781,2255.0,2097.0,1246.0,1886.0,1436.0,15968.0,-3208.0,866.0,-318.0,-54.0,-471.0,-1411.0,-764.0,33592.0,5628672.0,2263.0,2707.0,0.0
10229634000,0.010265421947697738,97414.40781440781,2272.0,2097.0,1245.0,1886.0,1412.0,15948.0,-3168.0,842.0,-284.0,-21.0,-479.0,-1410.0,-773.0,33592.0,5628672.0,2263.0,2708.0,0.0
10229890000,0.010265421947697738,97414.40781440781,2216.0,2099.0,1245.0,1885.0,1448.0,15948.0,-3284.0,825.0,-260.0,-27.0,-482.0,-1409.0,-772.0,33592.0,5628416.0,2230.0,2691.0,0.0
10230146000,0.010265421947697738,97414.40781440781,2230.0,2098.0,1246.0,1883.0,1432.0,15964.0,-3324.0,849.0,-282.0,-54.0,-473.0,-1411.0,-775.0,33592.0,5628416.0,2253.0,2707.0,0.0
10230402000,0.010265421947697738,97414.40781440781,2244.0,2097.0,1246.0,1879.0,1408.0,15944.0,-3304.0,870.0,-319.0,-31.0,-475.0,-1406.0,-766.0,33599.0,5628416.0,2258.0,2708.0,0.0
10230658000,0.010265421947697738,97414.40781440781,2267.0,2097.0,1247.0,1881.0,1420.0,15992.0,-3336.0,887.0,-353.0,-31.0,-475.0,-1406.0,-766.0,33599.0,5628416.0,2266.0,2707.0,0.0
10230914000,0.010265421947697738,97414.40781440781,2219.0,2099.0,1247.0,1882.0,1460.0,15936.0,-3312.0,884.0,-358.0,-39.0,-468.0,-1410.0,-763.0,33599.0,5628672.0,2231.0,2691.0,0.0
10231170000,0.010265421947697738,97414.40781440781,2220.0,2101.0,1248.0,1883.0,1488.0,15912.0,-3280.0,902.0,-362.0,-41.0,-470.0,-1405.0,-766.0,33599.0,5628672.0,2248.0,2708.0,0.0
10231426000,0.010265421947697738,97414.40781440781,2237.0,2101.0,1247.0,1885.0,1512.0,15952.0,-3280.0,883.0,-333.0,-50.0,-465.0,-1404.0,-774.0,33599.0,5628416.0,2255.0,2707.0,0.0
10231682000,0.010265421947697738,97414.40781440781,2255.0,2100.0,1245.0,1883.0,1428.0,15908.0,-3272.0,883.0,-333.0,-50.0,-465.0,-1404.0,-774.0,33599.0,5628416.0,2264.0,2707.0,0.0
10231938000,0.010265421947697738,97414.40781440781,2208.0,2099.0,1245.0,1882.0,1440.0,16000.0,-3312.0,885.0,-331.0,-69.0,-469.0,-1408.0,-776.0,33599.0,5628416.0,2230.0,2691.0,0.0
10232194000,0.010265421947697738,97414.40781440781,2226.0,2098.0,1246.0,1882.0,1428.0,15956.0,-3312.0,908.0,-340.0,-49.0,-469.0,-1414.0,-771.0,33599.0,5628416.0,2253.0,2707.0,0.0
10232450000,0.010265421947697738,97414.40781440781,2250.0,2098.0,1246.0,1884.0,1432.0,15936.0,-3312.0,921.0,-390.0,-47.0,-471.0,-1407.0,-773.0,33599.0,5627904.0,2264.0,2707.0,0.0
10232706000,0.010265421947697738,97414.40781440781,2274.0,2096.0,1248.0,1885.0,1384.0,15992.0,-3272.0,943.0,-384.0,-53.0,-467.0,-1412.0,-772.0,33599.0,5627904.0,2269.0,2707.0,0.0
10232962000,0.010265421947697738,97414.40781440781,2218.0,2095.0,1246.0,1884.0,1368.0,15956.0,-3244.0,924.0,-371.0,-33.0,-467.0,-1412.0,-772.0,33599.0,5627904.0,2232.0,2691.0,0.0
10233218000,0.010265421947697738,97414.40781440781,2226.0,2097.0,1246.0,1883.0,1388.0,15928.0,-3268.0,912.0,-338.0,-9.0,-468.0,-1410.0,-769.0,33599.0,5627904.0,2249.0,2708.0,0.0
10233474000,0.010265421947697738,97414.40781440781,2249.0,2098.0,1246.0,1882.0,1388.0,15948.0,-3340.0,910.0,-356.0,-18.0,-480.0,-1405.0,-773.0,33599.0,5628928.0,2262.0,2707.0,0.0
10233730000,0.010265421947697738,97414.40781440781,2262.0,2096.0,1248.0,1881.0,1432.0,15932.0,-3296.0,941.0,-357.0,-19.0,-481.0,-1408.0,-769.0,33599.0,5628928.0,2262.0,2708.0,0.0
10233986000,0.010265421947697738,97414.40781440781,2199.0,2099.0,1245.0,1886.0,1436.0,15940.0,-3180.0,937.0,-394.0,-23.0,-476.0,-1409.0,-773.0,33599.0,5628416.0,2223.0,2690.0,0.0
10234242000,0.010265421947697738,97414.40781440781,2216.0,2097.0,1245.0,1886.0,1440.0,15940.0,-3200.0,912.0,-352.0,-18.0,-476.0,-1409.0,-773.0,33599.0,5628416.0,2250.0,2707.0,0.0
10234498000,0.010265421947697738,97414.40781440781,2245.0,2098.0,1245.0,1887.0,1420.0,15956.0,-3200.0,910.0,-370.0,-22.0,-483.0,-1407.0,-771.0,33599.0,5627904.0,2262.0,2707.0,0.0
10234754000,0.010265421947697738,97414.40781440781,2267.0,2100.0,1247.0,1884.0,1488.0,16012.0,-3172.0,888.0,-355.0,-48.0,-476.0,-1408.0,-763.0,33599.0,5627904.0,2268.0,2707.0,0.0
10235010000,0.010265421947697738,97414.40781440781,2204.0,2101.0,1244.0,1888.0,1436.0,15928.0,-3208.0,889.0,-332.0,-55.0,-475.0,-1411.0,-766.0,33599.0,5628416.0,2225.0,2690.0,0.0
10235266000,0.010265421947697738,97414.40781440781,2222.0,2097.0,1244.0,1883.0,1408.0,16008.0,-3260.0,897.0,-322.0,-75.0,-475.0,-1411.0,-766.0,33599.0,5628416.0,2251.0,2707.0,0.0
10235522000,0.010265421947697738,97414.40781440781,2254.0,2095.0,1243.0,1883.0,1372.0,16016.0,-3304.0,921.0,-323.0,-73.0,-479.0,-1410.0,-772.0,33599.0,5628672.0,2263.0,2707.0,0.0
10235778000,0.010265421947697738,97414.40781440781,2270.0,2096.0,1243.0,1881.0,1452.0,15960.0,-3284.0,915.0,-340.0,-55.0,-481.0,-1407.0,-770.0,33599.0,5628672.0,2263.0,2708.0,0.0
10236034000,0.010265421947697738,97414.40781440781,2199.0,2099.0,1247.0,1882.0,1420.0,16004.0,-3292.0,916.0,-334.0,-54.0,-481.0,-1405.0,-768.0,33599.0,5627904.0,2222.0,2690.0,0.0
10236290000,0.010265421947697738,97414.40781440781,2214.0,2098.0,1248.0,1885.0,1420.0,15908.0,-3280.0,920.0,-360.0,-39.0,-476.0,-1411.0,-776.0,33599.0,5627904.0,2250.0,2707.0,0.0
10236546000,0.010265421947697738,97414.40781440781,2243.0,2097.0,1246.0,1887.0,1436.0,15960.0,-3272.0,950.0,-355.0,-46.0,-476.0,-1411.0,-776.0,33599.0,5628416.0,2262.0,2707.0,0.0
10236802000,0.010265421947697738,97414.40781440781,2209.0,2097.0,1246.0,1885.0,1440.0,15956.0,-3168.0,962.0,-376.0,-24.0,-479.0,-1410.0,-771.0,33599.0,5628416.0,2460.0,2686.0,0.0
10237058000,0.010265421947697738,97414.40781440781,2213.0,2097.0,1248.0,1890.0,1424.0,15956.0,-3172.0,943.0,-370.0,18.0,-469.0,-1408.0,-772.0,33599.0,5628160.0,2358.0,2707.0,0.0
10237314000,0.010265421947697738,97414.40781440781,2124.0,2097.0,1246.0,1893.0,1444.0,15968.0,-3136.0,923.0,-357.0,12.0,-481.0,-1405.0,-770.0,33599.0,5628160.0,2311.0,2707.0,0.0
10237570000,0.010265421947697738,97414.40781440781,2240.0,2099.0,1244.0,1891.0,1440.0,15972.0,-3120.0,889.0,-330.0,18.0,-480.0,-1405.0,-768.0,33599.0,5628416.0,2290.0,2707.0,0.0
10237826000,0.010265421947697738,97414.40781440781,2282.0,2099.0,1246.0,1888.0,1468.0,15988.0,-3172.0,818.0,-313.0,14.0,-480.0,-1405.0,-768.0,33599.0,5628416.0,2275.0,2708.0,0.0
10238082000,0.010265421947697738,97414.40781440781,2235.0,2099.0,1245.0,1888.0,1436.0,16004.0,-3204.0,817.0,-276.0,-17.0,-475.0,-1410.0,-767.0,33599.0,5628160.0,2235.0,2691.0,0.0
10238338000,0.010265421947697738,97414.40781440781,2234.0,2095.0,1245.0,1884.0,1400.0,16056.0,-3204.0,805.0,-273.0,-38.0,-469.0,-1403.0,-774.0,33599.0,5628160.0,2250.0,2708.0,0.0
10238594000,0.010265421947697738,97414.40781440781,2246.0,2098.0,1242.0,1882.0,1424.0,16020.0,-3280.0,812.0,-310.0,-26.0,-471.0,-1408.0,-773.0,33599.0,5628928.0,2257.0,2708.0,0.0
10238850000,0.010265421947697738,97414.40781440781,2265.0,2098.0,1244.0,1881.0,1448.0,15988.0,-3276.0,824.0,-309.0,-38.0,-471.0,-1408.0,-773.0,33599.0,5628928.0,2265.0,2707.0,0.0
10239106000,0.010265421947697738,97414.40781440781,2220.0,2096.0,1246.0,1882.0,1428.0,15976.0,-3348.0,881.0,-367.0,-50.0,-474.0,-1404.0,-775.0,33599.0,5628416.0,2231.0,2691.0,0.0
10239362000,0.010265421947697738,97414.40781440781,2233.0,2095.0,1245.0,1885.0,1372.0,15988.0,-3268.0,891.0,-339.0,-47.0,-474.0,-1407.0,-774.0,33599.0,5628416.0,2254.0,2707.0,0.0
10239618000,0.010265421947697738,97414.40781440781,2254.0,2097.0,1247.0,1884.0,1388.0,15940.0,-3260.0,870.0,-342.0,-31.0,-477.0,-1407.0,-775.0,33599.0,5628416.0,2264.0,2707.0,0.0
10239874000,0.010265421947697738,97414.40781440781,2264.0,2096.0,1247.0,1887.0,1408.0,15952.0,-3208.0,895.0,-351.0,-41.0,-467.0,-1411.0,-771.0,33599.0,5628416.0,2262.0,2706.0,0.0
10240130000,0.010265421947697738,97414.40781440781,2195.0,2098.0,1247.0,1889.0,1436.0,15908.0,-3220.0,903.0,-352.0,-70.0,-467.0,-1411.0,-771.0,33599.0,5628416.0,2222.0,2690.0,0.0
10240386000,0.010265421947697738,97414.40781440781,2202.0,2098.0,1247.0,1887.0,1408.0,15916.0,-3236.0,888.0,-331.0,-54.0,-475.0,-1405.0,-769.0,33599.0,5628416.0,2244.0,2708.0,0.0
10240642000,0.010265421947697738,97414.40781440781,2228.0,2099.0,1246.0,1884.0,1448.0,15928.0,-3252.0,888.0,-313.0,-44.0,-470.0,-1401.0,-764.0,33599.0,5628160.0,2255.0,2708.0,0.0
10240898000,0.010265421947697738,97414.40781440781,2249.0,2099.0,1246.0,1880.0,1428.0,15960.0,-3284.0,869.0,-297.0,-38.0,-475.0,-1407.0,-774.0,33599.0,5628160.0,2259.0,2708.0,0.0
10241154000,0.010265421947697738,97414.40781440781,2186.0,2099.0,1246.0,1882.0,1448.0,15984.0,-3368.0,867.0,-305.0,-44.0,-482.0,-1409.0,-766.0,33599.0,5628416.0,2221.0,2690.0,0.0
10241410000,0.010265421947697738,97414.40781440781,2195.0,2098.0,1247.0,1885.0,1440.0,15960.0,-3348.0,872.0,-327.0,-51.0,-482.0,-1409.0,-766.0,33599.0,5628416.0,2244.0,2708.0,0.0
10241666000,0.010265421947697738,97414.40781440781,2220.0,2097.0,1244.0,1880.0,1444.0,15992.0,-3304.0,911.0,-333.0,-43.0,-480.0,-1414.0,-774.0,33599.0,5628160.0,2254.0,2708.0,0.0
10241922000,0.010265421947697738,97414.40781440781,2245.0,2098.0,1247.0,1882.0,1444.0,15988.0,-3240.0,909.0,-339.0,-22.0,-475.0,-1402.0,-765.0,33599.0,5628160.0,2259.0,2708.0,0.0
10242178000,0.010265421947697738,97414.40781440781,2199.0,2098.0,1248.0,1884.0,1408.0,15912.0,-3240.0,930.0,-362.0,-41.0,-476.0,-1414.0,-771.0,33599.0,5628672.0,2227.0,2691.0,0.0
10242434000,0.010265421947697738,97414.40781440781,2214.0,2095.0,1245.0,1884.0,1392.0,15976.0,-3264.0,941.0,-356.0,-50.0,-476.0,-1414.0,-771.0,33599.0,5628672.0,2252.0,2707.0,0.0
10242690000,0.010265421947697738,97414.40781440781,2238.0,2096.0,1245.0,1883.0,1392.0,15960.0,-3256.0,915.0,-328.0,-62.0,-478.0,-1408.0,-771.0,33599.0,5628928.0,2258.0,2708.0,0.0
10242946000,0.010265421947697738,97414.40781440781,2263.0,2096.0,1246.0,1886.0,1340.0,15964.0,-3176.0,920.0,-310.0,-48.0,-478.0,-1406.0,-773.0,33599.0,5628928.0,2266.0,2707.0,0.0
10243202000,0.010265421947697738,97414.40781440781,2197.0,2098.0,1248.0,1887.0,1416.0,15968.0,-3172.0,922.0,-317.0,-60.0,-479.0,-1409.0,-771.0,33599.0,5628416.0,2224.0,2690.0,0.0
10243458000,0.010265421947697738,97414.40781440781,2213.0,2100.0,1248.0,1886.0,1456.0,15928.0,-3216.0,879.0,-287.0,-76.0,-476.0,-1410.0,-768.0,33599.0,5628416.0,2250.0,2707.0,0.0
10243714000,0.010265421947697738,97414.40781440781,2242.0,2102.0,1247.0,1889.0,1496.0,15948.0,-3256.0,860.0,-264.0,-83.0,-476.0,-1410.0,-768.0,33599.0,5628928.0,2262.0,2707.0,0.0
10243970000,0.010265421947697738,97414.40781440781,2267.0,2101.0,1248.0,1886.0,1500.0,15952.0,-3240.0,859.0,-237.0,-104.0,-473.0,-1404.0,-775.0,33599.0,5628928.0,2268.0,2707.0,0.0
10244226000,0.010265421947697738,97414.40781440781,2241.0,2100.0,1244.0,1885.0,1480.0,15988.0,-3248.0,844.0,-236.0,-95.0,-476.0,-1413.0,-775.0,33599.0,5628416.0,2469.0,2687.0,0.0
10244482000,0.010265421947697738,97414.40781440781,2224.0,2101.0,1244.0,1886.0,1496.0,15960.0,-3240.0,831.0,-243.0,-86.0,-478.0,-1410.0,-768.0,33599.0,5628416.0,2356.0,2708.0,0.0
10244738000,0.010265421947697738,97414.40781440781,2129.0,2100.0,1245.0,1882.0,1496.0,15996.0,-3276.0,869.0,-239.0,-89.0,-470.0,-1405.0,-772.0,33599.0,5628160.0,2311.0,2707.0,0.0
10244994000,0.010265421947697738,97414.40781440781,2238.0,2102.0,1245.0,1884.0,1512.0,15912.0,-3244.0,859.0,-223.0,-112.0,-470.0,-1405.0,-772.0,33599.0,5628160.0,2285.0,2708.0,0.0
10245250000,0.010265421947697738,97414.40781440781,2204.0,2101.0,1247.0,1883.0,1520.0,15980.0,-3224.0,891.0,-279.0,-106.0,-473.0,-1410.0,-770.0,33599.0,5628416.0,2233.0,2690.0,0.0
10245506000,0.010265421947697738,97414.40781440781,2217.0,2098.0,1245.0,1886.0,1444.0,15992.0,-3228.0,911.0,-276.0,-118.0,-474.0,-1405.0,-769.0,33599.0,5628416.0,2249.0,2708.0,0.0
10245762000,0.010265421947697738,97414.40781440781,2244.0,2098.0,1246.0,1892.0,1492.0,16024.0,-3140.0,931.0,-282.0,-135.0,-468.0,-1403.0,-771.0,33599.0,5628928.0,2262.0,2707.0,0.0
10246018000,0.010265421947697738,97414.40781440781,2265.0,2099.0,1243.0,1886.0,1440.0,16016.0,-3224.0,893.0,-266.0,-95.0,-468.0,-1403.0,-771.0,33599.0,5628928.0,2268.0,2707.0,0.0
10246274000,0.010265421947697738,97414.40781440781,2205.0,2100.0,1246.0,1887.0,1516.0,15940.0,-3256.0,858.0,-241.0,-101.0,-471.0,-1409.0,-779.0,33599.0,5628160.0,2225.0,2690.0,0.0
10246530000,0.010265421947697738,97414.40781440781,2211.0,2099.0,1246.0,1889.0,1476.0,15928.0,-3204.0,882.0,-242.0,-94.0,-464.0,-1404.0,-764.0,33599.0,5628160.0,2246.0,2708.0,0.0
10246786000,0.010265421947697738,97414.40781440781,2233.0,2100.0,1247.0,1886.0,1476.0,15944.0,-3228.0,878.0,-257.0,-103.0,-472.0,-1406.0,-773.0,33599.0,5628160.0,2255.0,2708.0,0.0
10247042000,0.010265421947697738,97414.40781440781,2253.0,2099.0,1246.0,1886.0,1480.0,15984.0,-3272.0,855.0,-247.0,-86.0,-470.0,-1407.0,-772.0,33599.0,5628160.0,2264.0,2707.0,0.0
10247298000,0.010265421947697738,97414.40781440781,2192.0,2100.0,1246.0,1885.0,1500.0,15956.0,-3192.0,854.0,-261.0,-103.0,-470.0,-1407.0,-772.0,33599.0,5628416.0,2224.0,2690.0,0.0
10247554000,0.010265421947697738,97414.40781440781,2204.0,2099.0,1245.0,1888.0,1456.0,16004.0,-3180.0,866.0,-275.0,-60.0,-470.0,-1412.0,-771.0,33599.0,5628416.0,2245.0,2708.0,0.0
10247810000,0.010265421947697738,97414.40781440781,2229.0,2102.0,1243.0,1886.0,1484.0,16004.0,-3200.0,865.0,-287.0,-47.0,-475.0,-1405.0,-777.0,33599.0,5628416.0,2255.0,2708.0,0.0
10248066000,0.010265421947697738,97414.40781440781,2257.0,2102.0,1245.0,1885.0,1508.0,16016.0,-3244.0,886.0,-297.0,-12.0,-477.0,-1407.0,-774.0,33599.0,5628416.0,2265.0,2707.0,0.0
10248322000,0.010265421947697738,97414.40781440781,2196.0,2104.0,1242.0,1884.0,1540.0,16040.0,-3280.0,886.0,-337.0,-2.0,-474.0,-1410.0,-775.0,33599.0,5628672.0,2223.0,2690.0,0.0
10248578000,0.010265421947697738,97414.40781440781,2215.0,2103.0,1244.0,1887.0,1552.0,16004.0,-3212.0,886.0,-337.0,-2.0,-474.0,-1410.0,-775.0,33599.0,5628672.0,2250.0,2707.0,0.0
10248834000,0.010265421947697738,97414.40781440781,2161.0,2102.0,1245.0,1888.0,1524.0,15980.0,-3172.0,873.0,-330.0,-3.0,-476.0,-1404.0,-771.0,33599.0,5628416.0,2217.0,2690.0,0.0
10249090000,0.010265421947697738,97414.40781440781,2180.0,2102.0,1246.0,1885.0,1528.0,15984.0,-3208.0,859.0,-331.0,-4.0,-480.0,-1405.0,-772.0,33599.0,5628416.0,2242.0,2708.0,0.0
10249346000,0.010265421947697738,97414.40781440781,2133.0,2102.0,1247.0,1884.0,1492.0,15968.0,-3280.0,869.0,-317.0,-6.0,-477.0,-1409.0,-761.0,33599.0,5628928.0,2213.0,2690.0,0.0
10249602000,0.010265421947697738,97414.40781440781,2171.0,2102.0,1247.0,1884.0,1508.0,15924.0,-3292.0,863.0,-350.0,-34.0,-477.0,-1409.0,-761.0,33599.0,5628928.0,2246.0,2707.0,0.0
10249858000,0.010265421947697738,97414.40781440781,2213.0,2099.0,1248.0,1888.0,1488.0,15952.0,-3248.0,892.0,-358.0,-50.0,-485.0,-1410.0,-774.0,33599.0,5628416.0,2255.0,2708.0,0.0
10250114000,0.010265421947697738,97414.40781440781,2243.0,2099.0,1249.0,1887.0,1448.0,15916.0,-3196.0,918.0,-385.0,-45.0,-478.0,-1409.0,-769.0,33599.0,5628416.0,2264.0,2707.0,0.0
10250370000,0.010265421947697738,97414.40781440781,2186.0,2100.0,1249.0,1888.0,1492.0,15916.0,-3216.0,878.0,-373.0,-35.0,-480.0,-1404.0,-773.0,33599.0,5628672.0,2224.0,2690.0,0.0
10250626000,0.010265421947697738,97414.40781440781,2207.0,2102.0,1250.0,1886.0,1540.0,15888.0,-3264.0,882.0,-335.0,-49.0,-476.0,-1404.0,-770.0,33599.0,5628672.0,2250.0,2707.0,0.0
10250882000,0.010265421947697738,97414.40781440781,2239.0,2104.0,1249.0,1885.0,1548.0,15896.0,-3304.0,872.0,-315.0,-50.0,-476.0,-1404.0,-770.0,33599.0,5628160.0,2262.0,2707.0,0.0
10251138000,0.010265421947697738,97414.40781440781,2265.0,2102.0,1248.0,1885.0,1564.0,15908.0,-3212.0,847.0,-309.0,-44.0,-476.0,-1411.0,-772.0,33599.0,5628160.0,2268.0,2707.0,0.0
10251394000,0.010265421947697738,97414.40781440781,2217.0,2101.0,1248.0,1883.0,1516.0,15928.0,-3200.0,868.0,-330.0,-49.0,-482.0,-1411.0,-773.0,33599.0,5628672.0,2231.0,2691.0,0.0
10251650000,0.010265421947697738,97414.40781440781,2224.0,2102.0,1245.0,1885.0,1556.0,15976.0,-3240.0,875.0,-365.0,-44.0,-473.0,-1406.0,-767.0,33599.0,5628672.0,2249.0,2708.0,0.0
10251906000,0.010265421947697738,97414.40781440781,2247.0,2101.0,1243.0,1884.0,1520.0,16000.0,-3264.0,886.0,-339.0,-36.0,-473.0,-1412.0,-772.0,33599.0,5628672.0,2262.0,2707.0,0.0
10252162000,0.010265421947697738,97414.40781440781,2269.0,2100.0,1241.0,1887.0,1492.0,16012.0,-3244.0,891.0,-345.0,-22.0,-473.0,-1412.0,-772.0,33599.0,5628672.0,2268.0,2707.0,0.0
10252418000,0.010265421947697738,97414.40781440781,2229.0,2099.0,1241.0,1887.0,1504.0,16040.0,-3116.0,903.0,-334.0,-33.0,-476.0,-1409.0,-771.0,33599.0,5629184.0,2462.0,2686.0,0.0
10252674000,0.010265421947697738,97414.40781440781,2215.0,2099.0,1242.0,1886.0,1492.0,15964.0,-3204.0,908.0,-309.0,-32.0,-469.0,-1402.0,-767.0,33599.0,5629184.0,2353.0,2708.0,0.0
10252930000,0.010265421947697738,97414.40781440781,2120.0,2098.0,1244.0,1886.0,1452.0,15972.0,-3248.0,896.0,-275.0,-15.0,-468.0,-1411.0,-768.0,33599.0,5628672.0,2310.0,2707.0,0.0
10253186000,0.010265421947697738,97414.40781440781,2225.0,2100.0,1245.0,1885.0,1480.0,15944.0,-3276.0,880.0,-273.0,-26.0,-468.0,-1411.0,-768.0,33599.0,5628672.0,2284.0,2708.0,0.0
10253442000,0.010265421947697738,97414.40781440781,2199.0,2100.0,1246.0,1885.0,1488.0,15932.0,-3196.0,877.0,-276.0,-10.0,-471.0,-1408.0,-768.0,33599.0,5627904.0,2233.0,2690.0,0.0
10253698000,0.010265421947697738,97414.40781440781,2222.0,2100.0,1245.0,1887.0,1512.0,15952.0,-3224.0,886.0,-316.0,-40.0,-471.0,-1404.0,-769.0,33599.0,5627904.0,2254.0,2707.0,0.0
10253954000,0.010265421947697738,97414.40781440781,2246.0,2102.0,1243.0,1889.0,1468.0,16016.0,-3144.0,887.0,-358.0,-12.0,-462.0,-1402.0,-773.0,33599.0,5628672.0,2259.0,2708.0,0.0
10254210000,0.010265421947697738,97414.40781440781,2266.0,2100.0,1245.0,1889.0,1488.0,15932.0,-3184.0,877.0,-311.0,24.0,-473.0,-1410.0,-774.0,33599.0,5628672.0,2266.0,2707.0,0.0
10254466000,0.010265421947697738,97414.40781440781,2198.0,2103.0,1246.0,1888.0,1532.0,15896.0,-3148.0,826.0,-346.0,-10.0,-473.0,-1410.0,-774.0,33599.0,5628160.0,2224.0,2690.0,0.0
10254722000,0.010265421947697738,97414.40781440781,2208.0,2100.0,1245.0,1889.0,1528.0,15968.0,-3148.0,800.0,-313.0,-16.0,-475.0,-1410.0,-779.0,33599.0,5628160.0,2245.0,2708.0,0.0
10254978000,0.010265421947697738,97414.40781440781,2231.0,2101.0,1245.0,1886.0,1516.0,15984.0,-3244.0,811.0,-312.0,-26.0,-473.0,-1401.0,-778.0,33599.0,5627904.0,2255.0,2708.0,0.0
10255234000,0.010265421947697738,97414.40781440781,2253.0,2101.0,1246.0,1884.0,1540.0,15940.0,-3292.0,790.0,-291.0,-40.0,-479.0,-1404.0,-770.0,33599.0,5627904.0,2264.0,2707.0,0.0
10255490000,0.010265421947697738,97414.40781440781,2204.0,2102.0,1244.0,1884.0,1556.0,15928.0,-3296.0,817.0,-299.0,-70.0,-478.0,-1406.0,-771.0,33599.0,5628672.0,2230.0,2691.0,0.0
10255746000,0.010265421947697738,97414.40781440781,2225.0,2102.0,1245.0,1881.0,1544.0,15960.0,-3304.0,862.0,-325.0,-44.0,-478.0,-1406.0,-771.0,33599.0,5628672.0,2253.0,2707.0,0.0
10256002000,0.010265421947697738,97414.40781440781,2250.0,2102.0,1246.0,1882.0,1508.0,15948.0,-3280.0,854.0,-341.0,-59.0,-476.0,-1406.0,-771.0,33599.0,5628416.0,2264.0,2707.0,0.0
10256258000,0.010265421947697738,97414.40781440781,2270.0,2099.0,1244.0,1883.0,1488.0,15908.0,-3260.0,884.0,-305.0,-61.0,-483.0,-1413.0,-769.0,33599.0,5628416.0,2268.0,2707.0,0.0
10256514000,0.010265421947697738,97414.40781440781,2200.0,2100.0,1245.0,1883.0,1480.0,15920.0,-3316.0,882.0,-305.0,-56.0,-488.0,-1409.0,-772.0,33599.0,5628928.0,2224.0,2689.0,0.0
10256770000,0.010265421947697738,97414.40781440781,2214.0,2101.0,1247.0,1881.0,1496.0,15904.0,-3316.0,894.0,-322.0,-57.0,-488.0,-1409.0,-772.0,33599.0,5628928.0,2250.0,2707.0,0.0
10257026000,0.010265421947697738,97414.40781440781,2238.0,2100.0,1245.0,1884.0,1496.0,15932.0,-3264.0,927.0,-351.0,-51.0,-480.0,-1407.0,-775.0,33599.0,5628928.0,2257.0,2708.0,0.0
10257282000,0.010265421947697738,97414.40781440781,2250.0,2102.0,1248.0,1885.0,1536.0,15920.0,-3208.0,901.0,-360.0,-25.0,-478.0,-1405.0,-773.0,33599.0,5628928.0,2260.0,2708.0,0.0
10257538000,0.010265421947697738,97414.40781440781,2188.0,2104.0,1249.0,1886.0,1592.0,15888.0,-3280.0,898.0,-385.0,-33.0,-478.0,-1406.0,-775.0,33599.0,5628672.0,2221.0,2690.0,0.0
10257794000,0.010265421947697738,97414.40781440781,2194.0,2102.0,1248.0,1887.0,1568.0,15876.0,-3256.0,895.0,-385.0,-16.0,-477.0,-1403.0,-771.0,33599.0,5628672.0,2242.0,2706.0,0.0
10258050000,0.010265421947697738,97414.40781440781,2230.0,2101.0,1245.0,1888.0,1512.0,15972.0,-3176.0,871.0,-386.0,-52.0,-477.0,-1403.0,-771.0,33599.0,5628672.0,2259.0,2707.0,0.0
10258306000,0.010265421947697738,97414.40781440781,2260.0,2099.0,1245.0,1887.0,1516.0,15952.0,-3196.0,870.0,-330.0,-63.0,-474.0,-1408.0,-769.0,33599.0,5628672.0,2266.0,2707.0,0.0
10258562000,0.010265421947697738,97414.40781440781,2196.0,2098.0,1243.0,1888.0,1456.0,16032.0,-3132.0,812.0,-289.0,-24.0,-479.0,-1404.0,-775.0,33599.0,5628160.0,2224.0,2690.0,0.0
10258818000,0.010265421947697738,97414.40781440781,2205.0,2099.0,1245.0,1884.0,1460.0,15960.0,-3240.0,783.0,-244.0,-3.0,-477.0,-1404.0,-771.0,33599.0,5628160.0,2245.0,2708.0,0.0
10259074000,0.010265421947697738,97414.40781440781,2222.0,2101.0,1246.0,1882.0,1564.0,15944.0,-3328.0,808.0,-242.0,-11.0,-473.0,-1403.0,-771.0,33599.0,5628928.0,2253.0,2706.0,0.0
10259330000,0.010265421947697738,97414.40781440781,2250.0,2103.0,1246.0,1881.0,1520.0,15972.0,-3288.0,831.0,-211.0,-12.0,-473.0,-1403.0,-771.0,33599.0,5628928.0,2264.0,2707.0,0.0
10259586000,0.010265421947697738,97414.40781440781,2194.0,2101.0,1247.0,1881.0,1548.0,15948.0,-3312.0,827.0,-180.0,13.0,-472.0,-1406.0,-769.0,33599.0,5628672.0,2223.0,2690.0,0.0
10259842000,0.010265421947697738,97414.40781440781,2212.0,2100.0,1246.0,1879.0,1512.0,15884.0,-3356.0,841.0,-210.0,9.0,-470.0,-1403.0,-774.0,33599.0,5628672.0,2250.0,2707.0,0.0
10260098000,0.010265421947697738,97414.40781440781,2235.0,2098.0,1249.0,1883.0,1492.0,15880.0,-3328.0,828.0,-218.0,9.0,-469.0,-1409.0,-769.0,33599.0,5628416.0,2257.0,2708.0,0.0
10260354000,0.010265421947697738,97414.40781440781,2259.0,2101.0,1246.0,1884.0,1472.0,15928.0,-3244.0,860.0,-241.0,-38.0,-469.0,-1409.0,-769.0,33599.0,5628416.0,2265.0,2707.0,0.0
10260610000,0.010265421947697738,97414.40781440781,2196.0,2101.0,1248.0,1885.0,1472.0,15932.0,-3252.0,857.0,-251.0,-49.0,-471.0,-1410.0,-776.0,33599.0,5628928.0,2224.0,2690.0,0.0
10260866000,0.010265421947697738,97414.40781440781,2219.0,2100.0,1247.0,1888.0,1492.0,15928.0,-3164.0,803.0,-212.0,-53.0,-473.0,-1411.0,-766.0,33599.0,5628928.0,2251.0,2707.0,0.0
10261122000,0.010265421947697738,97414.40781440781,2238.0,2099.0,1244.0,1888.0,1520.0,15952.0,-3080.0,765.0,-163.0,-57.0,-476.0,-1406.0,-771.0,33599.0,5628672.0,2257.0,2708.0,0.0
10261378000,0.010265421947697738,97414.40781440781,2261.0,2100.0,1246.0,1888.0,1476.0,15928.0,-3180.0,687.0,-93.0,-90.0,-476.0,-1415.0,-772.0,33599.0,5628672.0,2265.0,2707.0,0.0
10261634000,0.010265421947697738,97414.40781440781,2195.0,2100.0,1246.0,1885.0,1504.0,16000.0,-3200.0,671.0,-61.0,-88.0,-476.0,-1415.0,-772.0,33599.0,5628160.0,2224.0,2690.0,0.0
10261890000,0.010265421947697738,97414.40781440781,2207.0,2102.0,1248.0,1887.0,1488.0,16008.0,-3208.0,651.0,-32.0,-108.0,-471.0,-1410.0,-763.0,33599.0,5628160.0,2245.0,2708.0,0.0
10262146000,0.010265421947697738,97414.40781440781,2231.0,2101.0,1244.0,1882.0,1504.0,16000.0,-3296.0,657.0,-50.0,-119.0,-472.0,-1409.0,-769.0,33599.0,5628416.0,2255.0,2708.0,0.0
10262402000,0.010265421947697738,97414.40781440781,2212.0,2103.0,1245.0,1881.0,1540.0,15968.0,-3380.0,669.0,-48.0,-109.0,-477.0,-1408.0,-764.0,33599.0,5628416.0,2463.0,2687.0,0.0
10262658000,0.010265421947697738,97414.40781440781,2124.0,2103.0,1247.0,1880.0,1548.0,15960.0,-3396.0,729.0,-114.0,-80.0,-475.0,-1406.0,-770.0,33599.0,5628672.0,2311.0,2689.0,0.0
10262914000,0.010265421947697738,97414.40781440781,2246.0,2105.0,1245.0,1880.0,1532.0,15980.0,-3372.0,749.0,-181.0,-80.0,-475.0,-1406.0,-770.0,33599.0,5628672.0,2291.0,2707.0,0.0
10263170000,0.010265421947697738,97414.40781440781,2281.0,2105.0,1247.0,1880.0,1612.0,15968.0,-3368.0,793.0,-209.0,-82.0,-480.0,-1407.0,-763.0,33599.0,5627904.0,2276.0,2708.0,0.0
10263426000,0.010265421947697738,97414.40781440781,2298.0,2104.0,1246.0,1882.0,1664.0,15976.0,-3324.0,815.0,-229.0,-72.0,-475.0,-1410.0,-766.0,33599.0,5627904.0,2274.0,2707.0,0.0
10263682000,0.010265421947697738,97414.40781440781,2223.0,2093.0,1249.0,1882.0,1552.0,15976.0,-3284.0,803.0,-222.0,-73.0,-474.0,-1413.0,-770.0,33599.0,5628928.0,2226.0,2689.0,0.0
10263938000,0.010265421947697738,97414.40781440781,2219.0,2111.0,1245.0,1882.0,1772.0,15956.0,-3348.0,782.0,-175.0,-89.0,-474.0,-1413.0,-770.0,33599.0,5628928.0,2246.0,2708.0,0.0
10264194000,0.010265421947697738,97414.40781440781,2260.0,2105.0,1248.0,1884.0,1592.0,15912.0,-3244.0,799.0,-188.0,-68.0,-484.0,-1408.0,-767.0,33599.0,5628416.0,2267.0,2707.0,0.0
10264450000,0.010265421947697738,97414.40781440781,2281.0,2104.0,1248.0,1884.0,1552.0,15936.0,-3280.0,767.0,-160.0,-77.0,-473.0,-1401.0,-767.0,33599.0,5628416.0,2270.0,2707.0,0.0
10264706000,0.010265421947697738,97414.40781440781,2213.0,2104.0,1248.0,1883.0,1584.0,15912.0,-3308.0,756.0,-164.0,-114.0,-478.0,-1409.0,-772.0,33599.0,5628416.0,2226.0,2690.0,0.0
10264962000,0.010265421947697738,97414.40781440781,2214.0,2104.0,1246.0,1883.0,1536.0,15928.0,-3284.0,766.0,-138.0,-107.0,-470.0,-1410.0,-767.0,33599.0,5628416.0,2245.0,2706.0,0.0
10265218000,0.010265421947697738,97414.40781440781,2228.0,2105.0,1248.0,1884.0,1596.0,15872.0,-3264.0,766.0,-138.0,-107.0,-470.0,-1410.0,-767.0,33599.0,5628672.0,2253.0,2706.0,0.0
10265474000,0.010265421947697738,97414.40781440781,2253.0,2105.0,1246.0,1882.0,1604.0,15924.0,-3340.0,764.0,-158.0,-109.0,-467.0,-1404.0,-768.0,33599.0,5628672.0,2264.0,2707.0,0.0
10265730000,0.010265421947697738,97414.40781440781,2196.0,2103.0,1245.0,1879.0,1576.0,15984.0,-3344.0,766.0,-167.0,-120.0,-468.0,-1404.0,-771.0,33599.0,5628928.0,2223.0,2690.0,0.0
10265986000,0.010265421947697738,97414.40781440781,2213.0,2105.0,1245.0,1880.0,1580.0,15944.0,-3388.0,777.0,-196.0,-94.0,-469.0,-1411.0,-765.0,33599.0,5628928.0,2250.0,2707.0,0.0
10266242000,0.010265421947697738,97414.40781440781,2233.0,2108.0,1246.0,1881.0,1636.0,15936.0,-3336.0,757.0,-211.0,-107.0,-474.0,-1404.0,-767.0,33599.0,5628672.0,2255.0,2706.0,0.0
10266498000,0.010265421947697738,97414.40781440781,2248.0,2106.0,1247.0,1880.0,1664.0,15964.0,-3352.0,756.0,-203.0,-80.0,-474.0,-1404.0,-767.0,33599.0,5628672.0,2258.0,2706.0,0.0
10266754000,0.010265421947697738,97414.40781440781,2181.0,2106.0,1245.0,1879.0,1608.0,15956.0,-3308.0,750.0,-192.0,-93.0,-470.0,-1407.0,-767.0,33599.0,5628672.0,2220.0,2690.0,0.0
10267010000,0.010265421947697738,97414.40781440781,2205.0,2104.0,1244.0,1880.0,1600.0,16004.0,-3332.0,750.0,-175.0,-65.0,-470.0,-1405.0,-767.0,33599.0,5628672.0,2249.0,2707.0,0.0
10267266000,0.010265421947697738,97414.40781440781,2230.0,2105.0,1247.0,1881.0,1632.0,15924.0,-3376.0,694.0,-117.0,-77.0,-480.0,-1408.0,-766.0,33599.0,5628160.0,2255.0,2706.0,0.0
10267522000,0.010265421947697738,97414.40781440781,2243.0,2106.0,1248.0,1880.0,1604.0,15900.0,-3380.0,684.0,-111.0,-80.0,-480.0,-1408.0,-766.0,33599.0,5628160.0,2258.0,2706.0,0.0
10267778000,0.010265421947697738,97414.40781440781,2180.0,2104.0,1248.0,1878.0,1600.0,15884.0,-3364.0,718.0,-93.0,-105.0,-467.0,-1402.0,-771.0,33599.0,5628416.0,2220.0,2690.0,0.0
10268034000,0.010265421947697738,97414.40781440781,2191.0,2104.0,1248.0,1879.0,1588.0,15856.0,-3372.0,715.0,-84.0,-129.0,-471.0,-1407.0,-768.0,33599.0,5628416.0,2244.0,2708.0,0.0
10268290000,0.010265421947697738,97414.40781440781,2217.0,2104.0,1249.0,1877.0,1616.0,15876.0,-3372.0,680.0,-87.0,-115.0,-469.0,-1409.0,-768.0,33599.0,5628416.0,2254.0,2708.0,0.0
10268546000,0.010265421947697738,97414.40781440781,2245.0,2106.0,1250.0,1878.0,1592.0,15824.0,-3396.0,681.0,-62.0,-153.0,-472.0,-1413.0,-767.0,33599.0,5628416.0,2264.0,2707.0,0.0
10268802000,0.010265421947697738,97414.40781440781,2175.0,2105.0,1250.0,1878.0,1584.0,15868.0,-3404.0,706.0,-45.0,-171.0,-472.0,-1413.0,-767.0,33599.0,5628160.0,2215.0,2688.0,0.0
10269058000,0.010265421947697738,97414.40781440781,2201.0,2105.0,1249.0,1878.0,1612.0,15884.0,-3420.0,677.0,-48.0,-191.0,-485.0,-1407.0,-768.0,33599.0,5628160.0,2247.0,2707.0,0.0
10269314000,0.010265421947697738,97414.40781440781,2230.0,2108.0,1249.0,1876.0,1628.0,15888.0,-3420.0,679.0,-43.0,-153.0,-482.0,-1410.0,-767.0,33599.0,5627904.0,2260.0,2707.0,0.0
10269570000,0.010265421947697738,97414.40781440781,2264.0,2110.0,1247.0,1872.0,1680.0,15952.0,-3512.0,740.0,-130.0,-124.0,-479.0,-1411.0,-766.0,33599.0,5627904.0,2267.0,2707.0,0.0
10269826000,0.010265421947697738,97414.40781440781,2200.0,2109.0,1246.0,1872.0,1660.0,15960.0,-3436.0,801.0,-199.0,-112.0,-482.0,-1412.0,-764.0,33599.0,5628672.0,2223.0,2689.0,0.0
10270082000,0.010265421947697738,97414.40781440781,2216.0,2110.0,1245.0,1875.0,1684.0,15948.0,-3420.0,805.0,-239.0,-76.0,-482.0,-1412.0,-764.0,33599.0,5628672.0,2250.0,2707.0,0.0
10270338000,0.010265421947697738,97414.40781440781,2238.0,2111.0,1248.0,1876.0,1712.0,15908.0,-3440.0,813.0,-230.0,-49.0,-475.0,-1404.0,-768.0,33599.0,5628928.0,2257.0,2708.0,0.0
10270594000,0.010265421947697738,97414.40781440781,2250.0,2109.0,1248.0,1876.0,1720.0,15904.0,-3408.0,791.0,-236.0,-76.0,-479.0,-1415.0,-766.0,33599.0,5628928.0,2260.0,2708.0,0.0
10270850000,0.010265421947697738,97414.40781440781,2182.0,2109.0,1248.0,1876.0,1656.0,15912.0,-3408.0,818.0,-216.0,-68.0,-477.0,-1410.0,-767.0,33599.0,5628672.0,2220.0,2689.0,0.0
10271106000,0.010265421947697738,97414.40781440781,2198.0,2107.0,1248.0,1876.0,1696.0,15924.0,-3424.0,811.0,-231.0,-80.0,-477.0,-1410.0,-767.0,33599.0,5628672.0,2248.0,2707.0,0.0
