Shimmer_A5E0_Timestamp_Unix_CAL,Shimmer_A5E0_GSR_Skin_Conductance_CAL_uS,Shimmer_A5E0_GSR_Skin_Resistance_CAL_kOhm,Shimmer_A5E0_PPG_A13_CAL_mV,Shimmer_A5E0_Accel_LN_X_CAL_m/s^2,Shimmer_A5E0_Accel_LN_Y_CAL_m/s^2,Shimmer_A5E0_Accel_LN_Z_CAL_m/s^2,Shimmer_A5E0_Accel_WR_X_CAL_m/s^2,Shimmer_A5E0_Accel_WR_Y_CAL_m/s^2,Shimmer_A5E0_Accel_WR_Z_CAL_m/s^2,Shimmer_A5E0_Gyro_X_CAL_deg/s,Shimmer_A5E0_Gyro_Y_CAL_deg/s,Shimmer_A5E0_Gyro_Z_CAL_deg/s,Shimmer_A5E0_Mag_X_CAL_local,Shimmer_A5E0_Mag_Y_CAL_local,Shimmer_A5E0_Mag_Z_CAL_local,Shimmer_A5E0_Temperature_BMP280_CAL_Celcius,Shimmer_A5E0_Pressure_BMP280_CAL_Pa,Shimmer_A5E0_Ext_Exp_A7_CAL_mV,Shimmer_A5E0_VSenseBatt_CAL_mV,Shimmer_A5E0_PPGtoHR_CAL_BPM
3545631000,0.7494509516837482,1334.3101343101343,2211.0,2045.0,2053.0,1224.0,440.0,-232.0,-16032.0,873.0,-350.0,-29.0,-69.0,-178.0,472.0,32768.0,5513984.0,2247.0,2816.0,0.0
3545887000,0.7494509516837482,1334.3101343101343,2252.0,2041.0,2053.0,1219.0,356.0,-272.0,-16140.0,895.0,-367.0,-5.0,-69.0,-178.0,472.0,32768.0,5513984.0,2250.0,2817.0,0.0
3546143000,0.7494509516837482,1334.3101343101343,2209.0,2041.0,2051.0,1218.0,360.0,-244.0,-16180.0,855.0,-358.0,-10.0,-66.0,-176.0,465.0,32768.0,5513984.0,2238.0,2816.0,0.0
3546399000,0.7494509516837482,1334.3101343101343,2190.0,2042.0,2052.0,1222.0,372.0,-280.0,-16124.0,859.0,-358.0,-18.0,-64.0,-179.0,467.0,32768.0,5513984.0,2240.0,2816.0,0.0
3546655000,0.7494509516837482,1334.3101343101343,2212.0,2043.0,2052.0,1223.0,416.0,-288.0,-16020.0,866.0,-349.0,-21.0,-66.0,-184.0,466.0,32768.0,5514240.0,2240.0,2816.0,0.0
3546911000,0.7494509516837482,1334.3101343101343,2187.0,2044.0,2052.0,1223.0,416.0,-268.0,-16096.0,869.0,-365.0,-45.0,-66.0,-184.0,466.0,32768.0,5514240.0,2247.0,2817.0,0.0
3547167000,0.7494509516837482,1334.3101343101343,2282.0,2043.0,2052.0,1222.0,404.0,-284.0,-16108.0,872.0,-342.0,-32.0,-71.0,-178.0,474.0,32768.0,5515008.0,2497.0,2815.0,0.0
3547423000,0.7494509516837482,1334.3101343101343,2243.0,2042.0,2053.0,1220.0,392.0,-264.0,-16088.0,870.0,-350.0,-36.0,-69.0,-183.0,473.0,32768.0,5515008.0,2357.0,2816.0,0.0
3547679000,0.02998857578065499,33346.031746031746,2303.0,2041.0,2053.0,1218.0,384.0,-292.0,-16128.0,871.0,-359.0,-27.0,-68.0,-182.0,470.0,32768.0,5514240.0,2300.0,2817.0,0.0
3547935000,0.02998857578065499,33346.031746031746,2344.0,2041.0,2050.0,1223.0,376.0,-256.0,-16184.0,865.0,-355.0,-22.0,-63.0,-188.0,471.0,32768.0,5514240.0,2275.0,2817.0,0.0
3548191000,0.02998857578065499,33346.031746031746,2271.0,2043.0,2051.0,1226.0,448.0,-276.0,-16100.0,871.0,-341.0,-16.0,-63.0,-188.0,471.0,32768.0,5514752.0,2256.0,2816.0,0.0
3548447000,0.02998857578065499,33346.031746031746,2265.0,2043.0,2053.0,1224.0,432.0,-256.0,-16116.0,864.0,-356.0,-15.0,-66.0,-172.0,472.0,32768.0,5514752.0,2248.0,2816.0,0.0
3548703000,0.02998857578065499,33346.031746031746,2254.0,2043.0,2052.0,1223.0,412.0,-252.0,-16064.0,875.0,-339.0,-25.0,-63.0,-180.0,471.0,32768.0,5514496.0,2250.0,2817.0,0.0
3548959000,0.02998857578065499,33346.031746031746,2220.0,2042.0,2053.0,1220.0,404.0,-272.0,-16112.0,875.0,-355.0,-17.0,-58.0,-174.0,469.0,32768.0,5514496.0,2252.0,2817.0,0.0
3549215000,0.02998857578065499,33346.031746031746,2230.0,2042.0,2052.0,1221.0,412.0,-256.0,-16160.0,857.0,-339.0,-31.0,-64.0,-179.0,470.0,32768.0,5514752.0,2459.0,2795.0,0.0
3549471000,0.02998857578065499,33346.031746031746,2155.0,2044.0,2051.0,1223.0,392.0,-252.0,-16140.0,873.0,-355.0,-29.0,-64.0,-179.0,470.0,32768.0,5514752.0,2562.0,2799.0,0.0
3549727000,0.02998857578065499,33346.031746031746,2259.0,2044.0,2052.0,1225.0,416.0,-256.0,-16076.0,873.0,-346.0,-24.0,-68.0,-181.0,471.0,32768.0,5514496.0,2394.0,2817.0,0.0
3549983000,0.02998857578065499,33346.031746031746,2169.0,2043.0,2053.0,1227.0,412.0,-300.0,-16032.0,884.0,-356.0,-39.0,-75.0,-180.0,467.0,32768.0,5514496.0,2317.0,2817.0,0.0
3550239000,0.02998857578065499,33346.031746031746,2213.0,2042.0,2053.0,1221.0,412.0,-296.0,-16096.0,878.0,-346.0,-20.0,-70.0,-179.0,469.0,32768.0,5514752.0,2275.0,2816.0,0.0
3550495000,0.015299488896195116,65361.66056166056,2322.0,2044.0,2052.0,1220.0,416.0,-304.0,-16168.0,867.0,-350.0,-34.0,-71.0,-181.0,475.0,32768.0,5514752.0,2510.0,2815.0,0.0
3550751000,0.015299488896195116,65361.66056166056,2270.0,2042.0,2051.0,1221.0,416.0,-308.0,-16140.0,880.0,-358.0,-29.0,-71.0,-181.0,475.0,32768.0,5515008.0,2363.0,2816.0,0.0
3551007000,0.015299488896195116,65361.66056166056,2341.0,2042.0,2052.0,1225.0,396.0,-284.0,-16048.0,868.0,-362.0,-27.0,-70.0,-184.0,473.0,32768.0,5515008.0,2303.0,2817.0,0.0
3551263000,0.015299488896195116,65361.66056166056,2343.0,2043.0,2053.0,1223.0,404.0,-272.0,-16068.0,856.0,-344.0,-35.0,-77.0,-179.0,466.0,32768.0,5515008.0,2269.0,2816.0,0.0
3551519000,0.015299488896195116,65361.66056166056,2254.0,2043.0,2052.0,1221.0,420.0,-304.0,-16080.0,859.0,-343.0,-29.0,-62.0,-179.0,469.0,32768.0,5515008.0,2470.0,2800.0,0.0
3551775000,0.015299488896195116,65361.66056166056,2235.0,2044.0,2053.0,1221.0,416.0,-304.0,-16144.0,880.0,-356.0,-36.0,-62.0,-179.0,469.0,32768.0,5514496.0,2344.0,2816.0,0.0
3552031000,0.015299488896195116,65361.66056166056,2297.0,2042.0,2050.0,1220.0,372.0,-296.0,-16112.0,873.0,-350.0,-19.0,-71.0,-181.0,468.0,32768.0,5514496.0,2296.0,2818.0,0.0
3552287000,0.015299488896195116,65361.66056166056,2284.0,2041.0,2052.0,1225.0,372.0,-236.0,-16084.0,865.0,-347.0,-13.0,-64.0,-179.0,472.0,32768.0,5515008.0,2266.0,2816.0,0.0
3552543000,0.015299488896195116,65361.66056166056,2287.0,2042.0,2052.0,1223.0,452.0,-272.0,-16080.0,865.0,-332.0,-26.0,-63.0,-183.0,469.0,32768.0,5515008.0,2252.0,2816.0,0.0
3552799000,0.015299488896195116,65361.66056166056,2223.0,2044.0,2052.0,1223.0,460.0,-268.0,-16064.0,890.0,-334.0,-17.0,-83.0,-185.0,473.0,32768.0,5514752.0,2245.0,2816.0,0.0
3553055000,0.015299488896195116,65361.66056166056,2250.0,2044.0,2052.0,1224.0,476.0,-248.0,-16116.0,888.0,-327.0,-23.0,-83.0,-185.0,473.0,32768.0,5514752.0,2250.0,2817.0,0.0
3553311000,0.010266863228834468,97400.73260073259,2227.0,2042.0,2053.0,1221.0,448.0,-252.0,-16060.0,876.0,-359.0,-10.0,-66.0,-179.0,472.0,32768.0,5515264.0,2244.0,2816.0,0.0
3553567000,0.010266863228834468,97400.73260073259,2183.0,2043.0,2052.0,1219.0,388.0,-268.0,-16092.0,860.0,-354.0,-32.0,-62.0,-177.0,468.0,32768.0,5515264.0,2459.0,2800.0,0.0
3553823000,0.010266863228834468,97400.73260073259,2204.0,2043.0,2051.0,1223.0,428.0,-240.0,-16128.0,880.0,-333.0,-24.0,-63.0,-179.0,472.0,32768.0,5514752.0,2346.0,2817.0,0.0
3554079000,0.010266863228834468,97400.73260073259,2235.0,2042.0,2053.0,1222.0,396.0,-304.0,-16096.0,875.0,-345.0,-21.0,-66.0,-178.0,470.0,32768.0,5514752.0,2497.0,2796.0,0.0
3554335000,0.010266863228834468,97400.73260073259,2298.0,2043.0,2053.0,1223.0,408.0,-284.0,-16072.0,875.0,-359.0,-15.0,-66.0,-178.0,470.0,32768.0,5514752.0,2611.0,2815.0,0.0
3554591000,0.010266863228834468,97400.73260073259,2359.0,2043.0,2052.0,1221.0,392.0,-292.0,-16080.0,863.0,-352.0,-31.0,-67.0,-185.0,467.0,32768.0,5514752.0,2627.0,2800.0,0.0
3554847000,0.010266863228834468,97400.73260073259,2378.0,2042.0,2052.0,1221.0,464.0,-260.0,-16112.0,873.0,-339.0,-24.0,-73.0,-181.0,469.0,32768.0,5515008.0,2424.0,2817.0,0.0
3555103000,0.010266863228834468,97400.73260073259,2287.0,2042.0,2053.0,1223.0,400.0,-272.0,-16100.0,872.0,-350.0,-25.0,-74.0,-181.0,466.0,32768.0,5515008.0,2331.0,2817.0,0.0
3555359000,0.010266863228834468,97400.73260073259,2292.0,2044.0,2052.0,1221.0,444.0,-264.0,-16108.0,862.0,-356.0,-27.0,-71.0,-185.0,469.0,32768.0,5515520.0,2281.0,2816.0,0.0
3555615000,0.010266863228834468,97400.73260073259,2271.0,2041.0,2051.0,1221.0,388.0,-268.0,-16084.0,885.0,-341.0,-38.0,-71.0,-185.0,469.0,32768.0,5515520.0,2476.0,2800.0,0.0
3555871000,0.010266863228834468,97400.73260073259,2258.0,2044.0,2052.0,1220.0,440.0,-280.0,-16092.0,850.0,-342.0,-14.0,-67.0,-178.0,469.0,32768.0,5515264.0,2355.0,2818.0,0.0
3556127000,0.010266863228834468,97400.73260073259,2302.0,2045.0,2051.0,1224.0,452.0,-260.0,-16064.0,861.0,-339.0,-15.0,-79.0,-180.0,469.0,32768.0,5515264.0,2301.0,2818.0,0.0
3556383000,0.010266863228834468,97400.73260073259,2329.0,2043.0,2052.0,1222.0,428.0,-260.0,-16088.0,877.0,-344.0,-15.0,-66.0,-182.0,474.0,32768.0,5514496.0,2268.0,2816.0,0.0
3556639000,0.010266863228834468,97400.73260073259,2331.0,2043.0,2052.0,1222.0,456.0,-256.0,-16076.0,870.0,-368.0,-27.0,-66.0,-182.0,474.0,32768.0,5514496.0,2506.0,2815.0,0.0
3556895000,0.010266863228834468,97400.73260073259,2290.0,2042.0,2053.0,1222.0,436.0,-328.0,-16080.0,877.0,-355.0,-41.0,-67.0,-178.0,471.0,32768.0,5515264.0,2368.0,2817.0,0.0
3557151000,0.010266863228834468,97400.73260073259,2174.0,2043.0,2052.0,1225.0,420.0,-300.0,-16064.0,874.0,-382.0,-22.0,-63.0,-177.0,468.0,32768.0,5515264.0,2305.0,2817.0,0.0
3557407000,0.010266863228834468,97400.73260073259,2204.0,2042.0,2054.0,1225.0,424.0,-292.0,-16040.0,876.0,-350.0,-35.0,-66.0,-176.0,469.0,32768.0,5515264.0,2270.0,2816.0,0.0
3557663000,0.010266863228834468,97400.73260073259,2245.0,2042.0,2051.0,1221.0,436.0,-284.0,-16100.0,867.0,-352.0,-33.0,-57.0,-178.0,469.0,32768.0,5515264.0,2476.0,2799.0,0.0
3557919000,0.010266863228834468,97400.73260073259,2203.0,2042.0,2052.0,1222.0,432.0,-296.0,-16092.0,863.0,-349.0,-29.0,-57.0,-178.0,469.0,32768.0,5515264.0,2347.0,2816.0,0.0
3558175000,0.010266863228834468,97400.73260073259,2252.0,2041.0,2052.0,1224.0,428.0,-280.0,-16060.0,863.0,-349.0,-29.0,-67.0,-186.0,467.0,32768.0,5515264.0,2498.0,2796.0,0.0
3558431000,0.010266863228834468,97400.73260073259,2262.0,2043.0,2050.0,1224.0,448.0,-256.0,-16064.0,877.0,-347.0,-24.0,-64.0,-175.0,468.0,32768.0,5515520.0,2357.0,2816.0,0.0
3558687000,0.010266863228834468,97400.73260073259,2293.0,2045.0,2050.0,1224.0,460.0,-224.0,-16032.0,873.0,-349.0,-22.0,-60.0,-180.0,471.0,32768.0,5515520.0,2294.0,2816.0,0.0
3558943000,0.010266863228834468,97400.73260073259,2364.0,2046.0,2053.0,1238.0,456.0,-320.0,-15768.0,865.0,-362.0,-22.0,-70.0,-179.0,467.0,32768.0,5514496.0,2518.0,2815.0,0.0
3559199000,0.010266863228834468,97400.73260073259,2280.0,2041.0,2051.0,1197.0,380.0,-244.0,-16668.0,873.0,-375.0,-45.0,-70.0,-179.0,467.0,32768.0,5514496.0,2576.0,2796.0,0.0
3559455000,0.010266863228834468,97400.73260073259,2302.0,2039.0,2048.0,1228.0,368.0,-212.0,-15900.0,859.0,-328.0,-30.0,-71.0,-183.0,475.0,32768.0,5515008.0,2400.0,2817.0,0.0
3559711000,0.010266863228834468,97400.73260073259,2416.0,2041.0,2052.0,1228.0,360.0,-232.0,-16000.0,871.0,-364.0,-33.0,-71.0,-176.0,471.0,32768.0,5515008.0,2537.0,2801.0,0.0
3559967000,0.010266863228834468,97400.73260073259,2335.0,2048.0,2052.0,1230.0,528.0,-276.0,-15972.0,879.0,-370.0,-25.0,-66.0,-174.0,469.0,32768.0,5515264.0,2375.0,2816.0,0.0
3560223000,0.010266863228834468,97400.73260073259,2384.0,2050.0,2056.0,1264.0,544.0,-380.0,-15320.0,883.0,-364.0,-20.0,-66.0,-174.0,469.0,32768.0,5515264.0,2302.0,2816.0,0.0
3560479000,0.010266863228834468,97400.73260073259,2413.0,2034.0,2053.0,1142.0,228.0,-260.0,-17812.0,854.0,-397.0,-40.0,-64.0,-176.0,473.0,32768.0,5515520.0,2522.0,2815.0,0.0
3560735000,0.010266863228834468,97400.73260073259,2377.0,2035.0,2050.0,1251.0,328.0,-232.0,-15104.0,883.0,-302.0,-39.0,-70.0,-177.0,469.0,32768.0,5515520.0,2623.0,2815.0,0.0
3560991000,0.010266863228834468,97400.73260073259,2449.0,2040.0,2052.0,1237.0,332.0,-224.0,-15568.0,858.0,-329.0,-30.0,-66.0,-179.0,471.0,32768.0,5515264.0,2422.0,2817.0,0.0
3561247000,0.010266863228834468,97400.73260073259,2267.0,2051.0,2054.0,1206.0,632.0,-296.0,-16504.0,865.0,-380.0,-31.0,-60.0,-184.0,467.0,32768.0,5515264.0,2330.0,2817.0,0.0
3561503000,0.010266863228834468,97400.73260073259,2364.0,2052.0,2054.0,1248.0,720.0,-332.0,-15884.0,910.0,-322.0,-23.0,-60.0,-184.0,467.0,32768.0,5515520.0,2535.0,2815.0,0.0
3561759000,0.010266863228834468,97400.73260073259,2351.0,2034.0,2049.0,1212.0,312.0,-196.0,-16304.0,851.0,-358.0,-36.0,-60.0,-174.0,467.0,32768.0,5515520.0,2375.0,2816.0,0.0
3562015000,0.010266863228834468,97400.73260073259,2157.0,2031.0,2048.0,1212.0,188.0,-188.0,-16500.0,899.0,-333.0,-31.0,-65.0,-179.0,469.0,32768.0,5515776.0,2308.0,2817.0,0.0
3562271000,0.010266863228834468,97400.73260073259,2275.0,2044.0,2051.0,1229.0,460.0,-296.0,-15948.0,866.0,-321.0,-9.0,-61.0,-180.0,474.0,32768.0,5515776.0,2279.0,2818.0,0.0
3562527000,0.010266863228834468,97400.73260073259,2316.0,2050.0,2056.0,1223.0,628.0,-352.0,-16192.0,868.0,-351.0,-16.0,-62.0,-178.0,463.0,32768.0,5515776.0,2511.0,2815.0,0.0
3562783000,0.010266863228834468,97400.73260073259,2255.0,2046.0,2052.0,1231.0,536.0,-296.0,-15960.0,860.0,-357.0,-17.0,-62.0,-178.0,463.0,32768.0,5515776.0,2581.0,2800.0,0.0
3563039000,0.010266863228834468,97400.73260073259,2342.0,2039.0,2050.0,1231.0,400.0,-232.0,-15924.0,858.0,-332.0,-30.0,-67.0,-176.0,473.0,32768.0,5515776.0,2402.0,2817.0,0.0
3563295000,0.010266863228834468,97400.73260073259,2187.0,2038.0,2052.0,1212.0,348.0,-268.0,-16224.0,884.0,-325.0,-28.0,-67.0,-178.0,471.0,32768.0,5515776.0,2323.0,2818.0,0.0
3563551000,0.010266863228834468,97400.73260073259,2293.0,2042.0,2056.0,1202.0,424.0,-344.0,-16472.0,864.0,-356.0,-27.0,-66.0,-179.0,474.0,32768.0,5516032.0,2285.0,2817.0,0.0
3563807000,0.010266863228834468,97400.73260073259,2264.0,2044.0,2056.0,1232.0,476.0,-324.0,-16120.0,880.0,-325.0,-24.0,-74.0,-178.0,468.0,32768.0,5516032.0,2477.0,2800.0,0.0
3564063000,0.010266863228834468,97400.73260073259,2204.0,2044.0,2052.0,1238.0,480.0,-304.0,-15744.0,865.0,-345.0,-31.0,-74.0,-178.0,468.0,32768.0,5515264.0,2348.0,2816.0,0.0
3564319000,0.010266863228834468,97400.73260073259,2326.0,2047.0,2051.0,1218.0,472.0,-256.0,-16248.0,873.0,-375.0,-37.0,-67.0,-175.0,469.0,32768.0,5515264.0,2297.0,2818.0,0.0
3564575000,0.010266863228834468,97400.73260073259,2288.0,2040.0,2050.0,1212.0,432.0,-232.0,-16264.0,865.0,-343.0,-49.0,-66.0,-181.0,477.0,32768.0,5515776.0,2267.0,2816.0,0.0
3564831000,0.010266863228834468,97400.73260073259,2278.0,2035.0,2052.0,1217.0,276.0,-272.0,-16188.0,880.0,-358.0,-39.0,-76.0,-181.0,473.0,32768.0,5515776.0,2252.0,2816.0,0.0
3565087000,0.010266863228834468,97400.73260073259,2254.0,2041.0,2054.0,1230.0,396.0,-300.0,-15980.0,857.0,-348.0,-31.0,-76.0,-181.0,473.0,32768.0,5515264.0,2246.0,2816.0,0.0
3565343000,0.010266657306751175,97402.68620268619,2219.0,2048.0,2051.0,1226.0,600.0,-268.0,-16068.0,876.0,-352.0,-41.0,-75.0,-183.0,467.0,32768.0,5515264.0,2249.0,2817.0,0.0
3565599000,0.010266863228834468,97400.73260073259,2264.0,2047.0,2052.0,1221.0,588.0,-252.0,-16124.0,854.0,-359.0,-6.0,-69.0,-186.0,477.0,32768.0,5515776.0,2251.0,2817.0,0.0
3565855000,0.010266863228834468,97400.73260073259,2227.0,2039.0,2052.0,1228.0,356.0,-228.0,-16000.0,866.0,-345.0,-29.0,-72.0,-179.0,476.0,32768.0,5515776.0,2252.0,2817.0,0.0
3566111000,0.010266863228834468,97400.73260073259,2229.0,2036.0,2052.0,1217.0,280.0,-232.0,-16100.0,874.0,-366.0,-28.0,-68.0,-172.0,470.0,32768.0,5515776.0,2246.0,2816.0,0.0
3566367000,0.010266863228834468,97400.73260073259,2241.0,2043.0,2052.0,1218.0,412.0,-308.0,-16248.0,878.0,-344.0,-61.0,-68.0,-172.0,470.0,32768.0,5515776.0,2250.0,2817.0,0.0
3566623000,0.010266863228834468,97400.73260073259,2196.0,2047.0,2052.0,1224.0,548.0,-284.0,-15972.0,871.0,-359.0,-25.0,-67.0,-179.0,471.0,32768.0,5515264.0,2244.0,2816.0,0.0
3566879000,0.010266863228834468,97400.73260073259,2231.0,2044.0,2053.0,1230.0,504.0,-284.0,-15928.0,881.0,-349.0,-23.0,-62.0,-179.0,475.0,32768.0,5515264.0,2242.0,2816.0,0.0
3567135000,0.010266863228834468,97400.73260073259,2209.0,2040.0,2052.0,1221.0,372.0,-264.0,-16084.0,850.0,-347.0,-18.0,-64.0,-178.0,469.0,32768.0,5515776.0,2248.0,2817.0,0.0
3567391000,0.010266863228834468,97400.73260073259,2219.0,2038.0,2055.0,1216.0,352.0,-300.0,-16220.0,875.0,-346.0,-28.0,-61.0,-179.0,471.0,32768.0,5515776.0,2251.0,2817.0,0.0
3567647000,0.010266863228834468,97400.73260073259,2237.0,2042.0,2054.0,1219.0,456.0,-272.0,-16164.0,870.0,-359.0,-34.0,-61.0,-179.0,471.0,32768.0,5515520.0,2245.0,2816.0,0.0
3567903000,0.010266863228834468,97400.73260073259,2190.0,2044.0,2054.0,1229.0,484.0,-332.0,-16024.0,872.0,-344.0,-38.0,-66.0,-180.0,465.0,32768.0,5515520.0,2466.0,2802.0,0.0
3568159000,0.010266863228834468,97400.73260073259,2214.0,2044.0,2051.0,1227.0,440.0,-256.0,-15980.0,882.0,-343.0,-36.0,-71.0,-185.0,468.0,32768.0,5515008.0,2349.0,2817.0,0.0
3568415000,0.010266863228834468,97400.73260073259,2292.0,2042.0,2052.0,1219.0,364.0,-272.0,-16132.0,866.0,-344.0,-12.0,-67.0,-177.0,468.0,32768.0,5515008.0,2298.0,2818.0,0.0
3568671000,0.010266863228834468,97400.73260073259,2333.0,2039.0,2053.0,1220.0,404.0,-268.0,-16136.0,867.0,-350.0,-28.0,-67.0,-177.0,468.0,32768.0,5515264.0,2520.0,2815.0,0.0
3568927000,0.010266863228834468,97400.73260073259,2338.0,2042.0,2050.0,1223.0,456.0,-228.0,-16100.0,872.0,-343.0,-29.0,-69.0,-173.0,471.0,32768.0,5515264.0,2374.0,2817.0,0.0
3569183000,0.010266863228834468,97400.73260073259,2151.0,2046.0,2052.0,1222.0,468.0,-268.0,-16072.0,861.0,-337.0,-30.0,-68.0,-178.0,470.0,32768.0,5515264.0,2308.0,2817.0,0.0
3569439000,0.010266863228834468,97400.73260073259,2263.0,2044.0,2050.0,1220.0,436.0,-264.0,-16048.0,855.0,-356.0,-11.0,-69.0,-176.0,466.0,32768.0,5515264.0,2279.0,2818.0,0.0
3569695000,0.010266863228834468,97400.73260073259,2261.0,2043.0,2051.0,1223.0,404.0,-264.0,-16168.0,866.0,-343.0,-18.0,-73.0,-182.0,469.0,32768.0,5515776.0,2258.0,2816.0,0.0
3569951000,0.010266863228834468,97400.73260073259,2219.0,2040.0,2051.0,1226.0,356.0,-260.0,-16068.0,873.0,-358.0,-16.0,-73.0,-182.0,469.0,32768.0,5515776.0,2248.0,2816.0,0.0
3570207000,0.010266863228834468,97400.73260073259,2263.0,2042.0,2052.0,1219.0,356.0,-508.0,-16168.0,862.0,-356.0,-20.0,-86.0,-180.0,464.0,32768.0,5515776.0,2251.0,2817.0,0.0
3570463000,0.010266863228834468,97400.73260073259,2229.0,2044.0,2053.0,1219.0,420.0,-268.0,-16132.0,877.0,-327.0,-25.0,-71.0,-178.0,471.0,32768.0,5515776.0,2253.0,2818.0,0.0
3570719000,0.010266863228834468,97400.73260073259,2235.0,2044.0,2053.0,1226.0,432.0,-316.0,-15952.0,902.0,-362.0,-39.0,-71.0,-178.0,473.0,32768.0,5515776.0,2246.0,2816.0,0.0
3570975000,0.010266863228834468,97400.73260073259,2225.0,2042.0,2052.0,1226.0,456.0,-280.0,-16060.0,881.0,-349.0,-16.0,-77.0,-179.0,465.0,32768.0,5515776.0,2466.0,2801.0,0.0
3571231000,0.010266657306751175,97402.68620268619,2161.0,2040.0,2051.0,1220.0,380.0,-256.0,-16136.0,871.0,-356.0,-27.0,-77.0,-179.0,465.0,32768.0,5515776.0,2342.0,2816.0,0.0
3571487000,0.010266863228834468,97400.73260073259,2303.0,2041.0,2054.0,1219.0,360.0,-264.0,-16140.0,873.0,-351.0,-11.0,-67.0,-179.0,468.0,32768.0,5515776.0,2511.0,2804.0,0.0
3571743000,0.010266863228834468,97400.73260073259,2265.0,2043.0,2053.0,1220.0,428.0,-292.0,-16112.0,872.0,-339.0,-24.0,-65.0,-175.0,469.0,32768.0,5515264.0,2370.0,2817.0,0.0
3571999000,0.010266863228834468,97400.73260073259,2355.0,2044.0,2052.0,1224.0,452.0,-304.0,-16080.0,869.0,-355.0,-25.0,-59.0,-177.0,473.0,32768.0,5515264.0,2530.0,2803.0,0.0
3572255000,0.010266863228834468,97400.73260073259,2328.0,2045.0,2050.0,1223.0,452.0,-256.0,-16108.0,878.0,-350.0,-28.0,-63.0,-177.0,469.0,32768.0,5515776.0,2372.0,2816.0,0.0
3572511000,0.010266863228834468,97400.73260073259,2146.0,2041.0,2051.0,1220.0,356.0,-280.0,-16144.0,865.0,-349.0,-31.0,-63.0,-177.0,469.0,32768.0,5515776.0,2308.0,2818.0,0.0
3572767000,0.010266863228834468,97400.73260073259,2265.0,2040.0,2052.0,1221.0,320.0,-288.0,-16120.0,871.0,-345.0,-36.0,-67.0,-178.0,468.0,32768.0,5516288.0,2278.0,2817.0,0.0
3573023000,0.010266863228834468,97400.73260073259,2251.0,2043.0,2054.0,1219.0,424.0,-260.0,-16120.0,865.0,-342.0,-24.0,-68.0,-174.0,471.0,32768.0,5516288.0,2481.0,2802.0,0.0
3573279000,0.010266863228834468,97400.73260073259,2211.0,2047.0,2052.0,1223.0,480.0,-292.0,-16100.0,869.0,-354.0,-29.0,-69.0,-178.0,478.0,32768.0,5515776.0,2350.0,2816.0,0.0
3573535000,0.010266863228834468,97400.73260073259,2322.0,2046.0,2051.0,1227.0,472.0,-268.0,-15996.0,868.0,-360.0,-31.0,-69.0,-178.0,478.0,32768.0,5515776.0,2297.0,2817.0,0.0
3573791000,0.010266863228834468,97400.73260073259,2279.0,2041.0,2052.0,1225.0,432.0,-264.0,-15988.0,862.0,-340.0,-12.0,-69.0,-182.0,466.0,32768.0,5515264.0,2266.0,2816.0,0.0
3574047000,0.010266863228834468,97400.73260073259,2286.0,2040.0,2052.0,1220.0,368.0,-288.0,-16076.0,865.0,-353.0,-24.0,-73.0,-177.0,473.0,32768.0,5515264.0,2476.0,2802.0,0.0
3574303000,0.010266863228834468,97400.73260073259,2244.0,2043.0,2053.0,1221.0,428.0,-304.0,-16168.0,894.0,-350.0,-27.0,-72.0,-183.0,477.0,32768.0,5515520.0,2355.0,2818.0,0.0
3574559000,0.010266863228834468,97400.73260073259,2308.0,2042.0,2053.0,1221.0,376.0,-288.0,-16148.0,836.0,-351.0,-30.0,-71.0,-174.0,472.0,32768.0,5515520.0,2299.0,2817.0,0.0
3574815000,0.010266863228834468,97400.73260073259,2333.0,2043.0,2052.0,1229.0,452.0,-300.0,-15956.0,883.0,-352.0,-10.0,-71.0,-174.0,472.0,32768.0,5515776.0,2267.0,2816.0,0.0
3575071000,0.010266863228834468,97400.73260073259,2282.0,2043.0,2052.0,1223.0,440.0,-268.0,-15988.0,883.0,-352.0,-10.0,-64.0,-180.0,472.0,32768.0,5515776.0,2483.0,2803.0,0.0
3575327000,0.010266863228834468,97400.73260073259,2268.0,2042.0,2052.0,1220.0,412.0,-264.0,-16064.0,867.0,-353.0,-10.0,-66.0,-180.0,467.0,32768.0,5515776.0,2357.0,2817.0,0.0
3575583000,0.010266863228834468,97400.73260073259,2341.0,2042.0,2052.0,1217.0,400.0,-228.0,-16100.0,867.0,-357.0,-19.0,-84.0,-174.0,474.0,32768.0,5515776.0,2302.0,2818.0,0.0
3575839000,0.010266863228834468,97400.73260073259,2293.0,2043.0,2051.0,1219.0,420.0,-292.0,-16152.0,883.0,-340.0,-33.0,-60.0,-180.0,467.0,32768.0,5515520.0,2268.0,2816.0,0.0
3576095000,0.010266863228834468,97400.73260073259,2318.0,2044.0,2050.0,1224.0,424.0,-276.0,-16056.0,862.0,-348.0,-23.0,-60.0,-180.0,467.0,32768.0,5515520.0,2483.0,2803.0,0.0
3576351000,0.010266863228834468,97400.73260073259,2249.0,2042.0,2051.0,1223.0,428.0,-216.0,-16044.0,853.0,-361.0,-17.0,-59.0,-177.0,471.0,32768.0,5516032.0,2358.0,2818.0,0.0
3576607000,0.010266863228834468,97400.73260073259,2337.0,2043.0,2051.0,1224.0,412.0,-260.0,-16084.0,878.0,-327.0,-25.0,-65.0,-180.0,471.0,32768.0,5516032.0,2302.0,2818.0,0.0
3576863000,0.010266863228834468,97400.73260073259,2326.0,2043.0,2051.0,1222.0,404.0,-304.0,-16072.0,872.0,-352.0,-31.0,-63.0,-178.0,475.0,32768.0,5515008.0,2268.0,2816.0,0.0
3577119000,0.010266863228834468,97400.73260073259,2259.0,2042.0,2052.0,1222.0,376.0,-296.0,-16100.0,871.0,-332.0,-58.0,-65.0,-176.0,468.0,32768.0,5515008.0,2253.0,2816.0,0.0
3577375000,0.010266863228834468,97400.73260073259,2288.0,2042.0,2055.0,1220.0,372.0,-308.0,-16108.0,873.0,-356.0,-20.0,-65.0,-176.0,468.0,32768.0,5515776.0,2253.0,2817.0,0.0
3577631000,0.010266863228834468,97400.73260073259,2251.0,2042.0,2054.0,1222.0,420.0,-296.0,-16072.0,868.0,-343.0,-16.0,-67.0,-178.0,473.0,32768.0,5515776.0,2253.0,2817.0,0.0
3577887000,0.010266863228834468,97400.73260073259,2292.0,2043.0,2053.0,1224.0,432.0,-320.0,-16132.0,885.0,-357.0,-22.0,-75.0,-181.0,469.0,32768.0,5515264.0,2499.0,2815.0,0.0
3578143000,0.010266863228834468,97400.73260073259,2273.0,2042.0,2052.0,1228.0,424.0,-304.0,-15988.0,879.0,-344.0,-22.0,-68.0,-183.0,469.0,32768.0,5515264.0,2582.0,2802.0,0.0
3578399000,0.010266863228834468,97400.73260073259,2282.0,2043.0,2052.0,1224.0,412.0,-288.0,-16084.0,863.0,-349.0,-28.0,-68.0,-183.0,469.0,32768.0,5515264.0,2396.0,2816.0,0.0
3578655000,0.010266863228834468,97400.73260073259,2391.0,2043.0,2051.0,1220.0,420.0,-284.0,-16156.0,866.0,-339.0,-19.0,-67.0,-182.0,467.0,32768.0,5515264.0,2527.0,2797.0,0.0
3578911000,0.010266863228834468,97400.73260073259,2337.0,2040.0,2052.0,1218.0,368.0,-264.0,-16164.0,875.0,-359.0,-26.0,-89.0,-174.0,472.0,32768.0,5515264.0,2377.0,2816.0,0.0
3579167000,0.010266863228834468,97400.73260073259,2174.0,2042.0,2051.0,1222.0,368.0,-232.0,-16084.0,869.0,-335.0,-26.0,-69.0,-183.0,469.0,32768.0,5515264.0,2309.0,2817.0,0.0
3579423000,0.010266863228834468,97400.73260073259,2261.0,2046.0,2049.0,1226.0,488.0,-196.0,-15960.0,859.0,-353.0,-18.0,-63.0,-177.0,471.0,32768.0,5516032.0,2272.0,2816.0,0.0
3579679000,0.010266863228834468,97400.73260073259,2236.0,2045.0,2051.0,1226.0,488.0,-204.0,-15996.0,876.0,-349.0,-18.0,-63.0,-177.0,471.0,32768.0,5516032.0,2261.0,2817.0,0.0
3579935000,0.010266863228834468,97400.73260073259,2261.0,2042.0,2051.0,1237.0,380.0,-260.0,-15920.0,877.0,-353.0,-29.0,-86.0,-178.0,470.0,32768.0,5515264.0,2250.0,2816.0,0.0
3580191000,0.010266863228834468,97400.73260073259,2249.0,2038.0,2048.0,1252.0,424.0,-276.0,-16056.0,876.0,-381.0,-56.0,-55.0,-178.0,474.0,32768.0,5515264.0,2475.0,2803.0,0.0
3580447000,0.010266863228834468,97400.73260073259,2191.0,2042.0,2052.0,1151.0,340.0,-236.0,-17504.0,858.0,-374.0,-39.0,-63.0,-183.0,462.0,32768.0,5515776.0,2346.0,2816.0,0.0
3580703000,0.010266863228834468,97400.73260073259,2306.0,2050.0,2053.0,1205.0,556.0,-316.0,-16076.0,875.0,-313.0,-26.0,-61.0,-177.0,470.0,32768.0,5515776.0,2289.0,2816.0,0.0
3580959000,0.010266863228834468,97400.73260073259,2265.0,2043.0,2054.0,1244.0,456.0,-324.0,-15504.0,879.0,-338.0,-27.0,-61.0,-177.0,470.0,32768.0,5515520.0,2262.0,2816.0,0.0
3581215000,0.010266863228834468,97400.73260073259,2270.0,2039.0,2053.0,1238.0,308.0,-332.0,-15804.0,864.0,-359.0,-18.0,-65.0,-174.0,468.0,32768.0,5515520.0,2475.0,2804.0,0.0
3581471000,0.010266863228834468,97400.73260073259,2244.0,2044.0,2056.0,1239.0,432.0,-360.0,-15616.0,866.0,-338.0,-22.0,-65.0,-179.0,465.0,32768.0,5515520.0,2353.0,2817.0,0.0
3581727000,0.010266657306751175,97402.68620268619,2277.0,2044.0,2058.0,1210.0,472.0,-376.0,-16388.0,858.0,-343.0,-30.0,-68.0,-184.0,467.0,32768.0,5515520.0,2507.0,2797.0,0.0
3581983000,0.010266863228834468,97400.73260073259,2289.0,2039.0,2055.0,1214.0,356.0,-360.0,-16392.0,876.0,-370.0,-33.0,-68.0,-184.0,467.0,32768.0,5515776.0,2361.0,2816.0,0.0
3582239000,0.010266863228834468,97400.73260073259,2324.0,2041.0,2052.0,1227.0,352.0,-236.0,-15960.0,871.0,-355.0,-38.0,-76.0,-180.0,467.0,32768.0,5515776.0,2520.0,2804.0,0.0
3582495000,0.010266863228834468,97400.73260073259,2316.0,2047.0,2050.0,1217.0,484.0,-244.0,-16248.0,870.0,-363.0,-22.0,-71.0,-177.0,469.0,32768.0,5515520.0,2375.0,2817.0,0.0
3582751000,0.010266863228834468,97400.73260073259,2188.0,2045.0,2048.0,1224.0,460.0,-224.0,-16116.0,889.0,-353.0,-31.0,-66.0,-175.0,471.0,32768.0,5515520.0,2310.0,2818.0,0.0
3583007000,0.010266863228834468,97400.73260073259,2211.0,2040.0,2049.0,1246.0,352.0,-176.0,-15524.0,860.0,-343.0,-36.0,-88.0,-173.0,469.0,32768.0,5515008.0,2272.0,2816.0,0.0
3583263000,0.010266863228834468,97400.73260073259,2270.0,2042.0,2048.0,1230.0,372.0,-236.0,-15680.0,873.0,-362.0,-43.0,-88.0,-173.0,469.0,32768.0,5515008.0,2484.0,2803.0,0.0
3583519000,0.010266863228834468,97400.73260073259,2238.0,2048.0,2051.0,1189.0,524.0,-244.0,-16736.0,861.0,-370.0,-31.0,-83.0,-173.0,469.0,32768.0,5515776.0,2359.0,2818.0,0.0
3583775000,0.010266863228834468,97400.73260073259,2319.0,2044.0,2051.0,1210.0,472.0,-228.0,-16552.0,864.0,-350.0,-23.0,-64.0,-173.0,471.0,32768.0,5515776.0,2303.0,2818.0,0.0
3584031000,0.010266863228834468,97400.73260073259,2334.0,2036.0,2051.0,1231.0,316.0,-248.0,-15828.0,903.0,-352.0,-31.0,-60.0,-175.0,474.0,32768.0,5515008.0,2269.0,2816.0,0.0
3584287000,0.010266863228834468,97400.73260073259,2261.0,2040.0,2053.0,1236.0,396.0,-300.0,-15852.0,876.0,-344.0,-20.0,-76.0,-176.0,468.0,32768.0,5515008.0,2253.0,2816.0,0.0
3584543000,0.010266657306751175,97402.68620268619,2269.0,2047.0,2056.0,1217.0,532.0,-304.0,-16124.0,883.0,-342.0,-29.0,-76.0,-176.0,468.0,32768.0,5515776.0,2246.0,2816.0,0.0
3584799000,0.010266863228834468,97400.73260073259,2249.0,2046.0,2055.0,1210.0,472.0,-348.0,-16352.0,863.0,-352.0,-37.0,-63.0,-177.0,470.0,32768.0,5515776.0,2251.0,2818.0,0.0
3585055000,0.010266863228834468,97400.73260073259,2219.0,2037.0,2054.0,1225.0,360.0,-300.0,-16048.0,883.0,-339.0,-19.0,-60.0,-185.0,469.0,32768.0,5515008.0,2245.0,2816.0,0.0
3585311000,0.010266863228834468,97400.73260073259,2243.0,2038.0,2054.0,1226.0,316.0,-348.0,-16080.0,877.0,-343.0,-25.0,-63.0,-179.0,471.0,32768.0,5515008.0,2467.0,2804.0,0.0
3585567000,0.010266863228834468,97400.73260073259,2173.0,2046.0,2054.0,1217.0,440.0,-344.0,-16208.0,877.0,-349.0,-25.0,-64.0,-180.0,469.0,32768.0,5515776.0,2343.0,2816.0,0.0
3585823000,0.010266863228834468,97400.73260073259,2294.0,2046.0,2051.0,1226.0,484.0,-228.0,-16064.0,860.0,-344.0,-40.0,-64.0,-180.0,469.0,32768.0,5515776.0,2294.0,2817.0,0.0
3586079000,0.010266863228834468,97400.73260073259,2294.0,2042.0,2051.0,1231.0,452.0,-260.0,-15896.0,870.0,-334.0,-24.0,-63.0,-182.0,461.0,32768.0,5515776.0,2265.0,2816.0,0.0
3586335000,0.010266863228834468,97400.73260073259,2227.0,2041.0,2049.0,1219.0,368.0,-244.0,-16080.0,871.0,-355.0,-38.0,-65.0,-179.0,470.0,32768.0,5515776.0,2468.0,2800.0,0.0
3586591000,0.010266863228834468,97400.73260073259,2228.0,2044.0,2050.0,1212.0,456.0,-256.0,-16272.0,886.0,-349.0,-13.0,-70.0,-178.0,468.0,32768.0,5516032.0,2343.0,2816.0,0.0
3586847000,0.010266863228834468,97400.73260073259,2267.0,2044.0,2052.0,1221.0,476.0,-212.0,-16140.0,870.0,-353.0,-26.0,-70.0,-178.0,468.0,32768.0,5516032.0,2287.0,2816.0,0.0
3587103000,0.010266863228834468,97400.73260073259,2284.0,2042.0,2050.0,1234.0,416.0,-216.0,-15928.0,863.0,-333.0,-24.0,-76.0,-176.0,465.0,32768.0,5515776.0,2262.0,2816.0,0.0
3587359000,0.010266863228834468,97400.73260073259,2285.0,2042.0,2051.0,1224.0,424.0,-228.0,-15908.0,889.0,-342.0,-27.0,-73.0,-177.0,463.0,32768.0,5515776.0,2481.0,2805.0,0.0
3587615000,0.010266863228834468,97400.73260073259,2217.0,2042.0,2052.0,1215.0,408.0,-264.0,-16196.0,878.0,-348.0,-26.0,-67.0,-186.0,466.0,32768.0,5516288.0,2356.0,2817.0,0.0
3587871000,0.010266863228834468,97400.73260073259,2339.0,2042.0,2052.0,1222.0,460.0,-304.0,-16236.0,882.0,-354.0,-12.0,-71.0,-178.0,472.0,32768.0,5516288.0,2300.0,2817.0,0.0
3588127000,0.010266863228834468,97400.73260073259,2301.0,2040.0,2054.0,1225.0,416.0,-288.0,-16024.0,872.0,-333.0,-25.0,-71.0,-178.0,472.0,32768.0,5515264.0,2267.0,2816.0,0.0
3588383000,0.010266863228834468,97400.73260073259,2289.0,2040.0,2053.0,1224.0,452.0,-324.0,-16180.0,870.0,-347.0,-35.0,-68.0,-179.0,471.0,32768.0,5515264.0,2484.0,2805.0,0.0
3588639000,0.010266863228834468,97400.73260073259,2272.0,2043.0,2054.0,1222.0,428.0,-332.0,-16108.0,865.0,-344.0,-24.0,-70.0,-174.0,469.0,32768.0,5515264.0,2357.0,2817.0,0.0
3588895000,0.010266863228834468,97400.73260073259,2303.0,2041.0,2053.0,1223.0,428.0,-328.0,-16008.0,872.0,-346.0,-27.0,-68.0,-178.0,465.0,32768.0,5515264.0,2300.0,2817.0,0.0
3589151000,0.010266863228834468,97400.73260073259,2329.0,2041.0,2054.0,1226.0,424.0,-308.0,-16008.0,862.0,-359.0,-23.0,-68.0,-180.0,473.0,32768.0,5515264.0,2268.0,2816.0,0.0
3589407000,0.010266863228834468,97400.73260073259,2278.0,2042.0,2053.0,1220.0,444.0,-280.0,-16132.0,867.0,-342.0,-36.0,-68.0,-180.0,473.0,32768.0,5515264.0,2253.0,2816.0,0.0
3589663000,0.010266863228834468,97400.73260073259,2241.0,2043.0,2051.0,1218.0,480.0,-232.0,-16088.0,862.0,-353.0,-28.0,-67.0,-175.0,466.0,32768.0,5515520.0,2246.0,2816.0,0.0
3589919000,0.010266863228834468,97400.73260073259,2263.0,2043.0,2050.0,1223.0,420.0,-280.0,-16092.0,883.0,-343.0,-24.0,-62.0,-182.0,472.0,32768.0,5515520.0,2250.0,2817.0,0.0
3590175000,0.010266863228834468,97400.73260073259,2208.0,2043.0,2051.0,1227.0,440.0,-244.0,-16012.0,856.0,-366.0,-21.0,-65.0,-176.0,465.0,32768.0,5515776.0,2245.0,2816.0,0.0
3590431000,0.010266863228834468,97400.73260073259,2244.0,2042.0,2053.0,1221.0,404.0,-300.0,-16132.0,877.0,-349.0,-14.0,-63.0,-176.0,469.0,32768.0,5515776.0,2473.0,2805.0,0.0
3590687000,0.010266863228834468,97400.73260073259,2201.0,2043.0,2050.0,1220.0,460.0,-276.0,-16152.0,851.0,-339.0,-26.0,-63.0,-176.0,469.0,32768.0,5515776.0,2345.0,2816.0,0.0
3590943000,0.010266863228834468,97400.73260073259,2272.0,2042.0,2052.0,1221.0,472.0,-288.0,-16080.0,877.0,-352.0,-26.0,-67.0,-180.0,464.0,32768.0,5515776.0,2296.0,2818.0,0.0
3591199000,0.010266863228834468,97400.73260073259,2311.0,2043.0,2052.0,1224.0,420.0,-300.0,-16048.0,884.0,-344.0,-19.0,-67.0,-178.0,467.0,32768.0,5515520.0,2266.0,2816.0,0.0
3591455000,0.010266863228834468,97400.73260073259,2215.0,2042.0,2053.0,1222.0,420.0,-268.0,-16032.0,882.0,-343.0,-17.0,-75.0,-181.0,468.0,32768.0,5515520.0,2460.0,2796.0,0.0
3591711000,0.010266863228834468,97400.73260073259,2192.0,2042.0,2055.0,1224.0,432.0,-308.0,-16116.0,888.0,-357.0,-17.0,-75.0,-181.0,468.0,32768.0,5515776.0,2340.0,2816.0,0.0
3591967000,0.010266863228834468,97400.73260073259,2271.0,2042.0,2052.0,1221.0,440.0,-308.0,-16052.0,888.0,-357.0,-17.0,-67.0,-179.0,469.0,32768.0,5515776.0,2501.0,2797.0,0.0
3592223000,0.010266863228834468,97400.73260073259,2224.0,2041.0,2053.0,1221.0,412.0,-308.0,-16032.0,871.0,-362.0,-29.0,-80.0,-174.0,471.0,32768.0,5516032.0,2359.0,2816.0,0.0
3592479000,0.010266863228834468,97400.73260073259,2335.0,2042.0,2051.0,1222.0,436.0,-304.0,-16104.0,869.0,-333.0,-5.0,-71.0,-175.0,466.0,32768.0,5516032.0,2294.0,2816.0,0.0
3592735000,0.010266863228834468,97400.73260073259,2289.0,2041.0,2053.0,1222.0,476.0,-280.0,-16144.0,883.0,-340.0,-25.0,-68.0,-180.0,467.0,32768.0,5515264.0,2265.0,2816.0,0.0
3592991000,0.010266863228834468,97400.73260073259,2285.0,2041.0,2053.0,1222.0,452.0,-284.0,-16112.0,868.0,-351.0,-42.0,-68.0,-180.0,467.0,32768.0,5515264.0,2258.0,2817.0,0.0
3593247000,0.010266863228834468,97400.73260073259,2267.0,2042.0,2052.0,1224.0,460.0,-276.0,-16060.0,869.0,-349.0,-32.0,-74.0,-176.0,466.0,32768.0,5515264.0,2248.0,2816.0,0.0
3593503000,0.010266657306751175,97402.68620268619,2225.0,2043.0,2050.0,1221.0,456.0,-224.0,-16100.0,882.0,-340.0,-1.0,-86.0,-180.0,465.0,32768.0,5515264.0,2475.0,2806.0,0.0
3593759000,0.010266863228834468,97400.73260073259,2247.0,2043.0,2050.0,1220.0,448.0,-236.0,-16116.0,888.0,-360.0,-32.0,-61.0,-183.0,468.0,32768.0,5515776.0,2353.0,2817.0,0.0
3594015000,0.010266863228834468,97400.73260073259,2306.0,2040.0,2050.0,1224.0,440.0,-252.0,-16084.0,870.0,-326.0,-7.0,-67.0,-174.0,467.0,32768.0,5515776.0,2299.0,2817.0,0.0
3594271000,0.010266863228834468,97400.73260073259,2301.0,2043.0,2050.0,1224.0,412.0,-308.0,-16108.0,889.0,-346.0,-26.0,-67.0,-174.0,467.0,32768.0,5515520.0,2267.0,2816.0,0.0
3594527000,0.010266863228834468,97400.73260073259,2297.0,2044.0,2053.0,1222.0,452.0,-292.0,-16060.0,862.0,-362.0,-21.0,-66.0,-180.0,467.0,32768.0,5515520.0,2253.0,2816.0,0.0
3594783000,0.010266863228834468,97400.73260073259,2236.0,2043.0,2052.0,1221.0,424.0,-324.0,-16092.0,869.0,-342.0,-29.0,-67.0,-170.0,467.0,32768.0,5515776.0,2252.0,2817.0,0.0
3595039000,0.010266863228834468,97400.73260073259,2272.0,2041.0,2053.0,1225.0,428.0,-328.0,-16096.0,851.0,-351.0,-28.0,-78.0,-181.0,470.0,32768.0,5515776.0,2253.0,2817.0,0.0
3595295000,0.010266657306751175,97402.68620268619,2234.0,2042.0,2053.0,1223.0,416.0,-352.0,-16060.0,893.0,-348.0,-29.0,-78.0,-181.0,470.0,32768.0,5516032.0,2246.0,2816.0,0.0
3595551000,0.010266657306751175,97402.68620268619,2207.0,2042.0,2053.0,1220.0,468.0,-300.0,-16032.0,877.0,-347.0,-21.0,-68.0,-181.0,470.0,32768.0,5516032.0,2242.0,2816.0,0.0
3595807000,0.010266863228834468,97400.73260073259,2241.0,2041.0,2054.0,1222.0,460.0,-340.0,-16084.0,862.0,-360.0,-23.0,-70.0,-176.0,468.0,32768.0,5515776.0,2248.0,2817.0,0.0
3596063000,0.010266863228834468,97400.73260073259,2206.0,2043.0,2054.0,1224.0,472.0,-292.0,-16072.0,871.0,-347.0,-18.0,-70.0,-179.0,470.0,32768.0,5515776.0,2252.0,2818.0,0.0
3596319000,0.010266863228834468,97400.73260073259,2234.0,2041.0,2051.0,1222.0,456.0,-296.0,-16092.0,860.0,-352.0,-28.0,-71.0,-179.0,469.0,32768.0,5516032.0,2245.0,2816.0,0.0
3596575000,0.010266863228834468,97400.73260073259,2230.0,2042.0,2052.0,1223.0,448.0,-276.0,-16088.0,870.0,-355.0,-13.0,-71.0,-179.0,469.0,32768.0,5516032.0,2474.0,2806.0,0.0
3596831000,0.010266863228834468,97400.73260073259,2196.0,2043.0,2052.0,1222.0,424.0,-272.0,-16088.0,894.0,-350.0,-33.0,-75.0,-177.0,471.0,32768.0,5516288.0,2354.0,2818.0,0.0
3597087000,0.010266863228834468,97400.73260073259,2330.0,2043.0,2052.0,1221.0,460.0,-268.0,-16060.0,872.0,-357.0,-36.0,-65.0,-178.0,475.0,32768.0,5516288.0,2299.0,2817.0,0.0
3597343000,0.010266863228834468,97400.73260073259,2289.0,2042.0,2050.0,1222.0,468.0,-260.0,-16124.0,857.0,-339.0,-6.0,-71.0,-178.0,478.0,32768.0,5516032.0,2267.0,2816.0,0.0
3597599000,0.010266863228834468,97400.73260073259,2276.0,2043.0,2051.0,1221.0,444.0,-276.0,-16088.0,880.0,-340.0,-37.0,-72.0,-176.0,468.0,32768.0,5516032.0,2252.0,2816.0,0.0
3597855000,0.010266863228834468,97400.73260073259,2257.0,2041.0,2051.0,1223.0,464.0,-260.0,-16104.0,885.0,-353.0,-30.0,-72.0,-176.0,468.0,32768.0,5516288.0,2246.0,2816.0,0.0
3598111000,0.010266863228834468,97400.73260073259,2218.0,2041.0,2053.0,1227.0,464.0,-288.0,-16072.0,841.0,-360.0,-25.0,-64.0,-180.0,471.0,32768.0,5516288.0,2250.0,2818.0,0.0
3598367000,0.010266863228834468,97400.73260073259,2219.0,2043.0,2050.0,1224.0,500.0,-304.0,-16108.0,876.0,-342.0,-40.0,-61.0,-181.0,466.0,32768.0,5516288.0,2453.0,2796.0,0.0
3598623000,0.010266863228834468,97400.73260073259,2165.0,2042.0,2051.0,1222.0,456.0,-308.0,-16092.0,884.0,-367.0,-25.0,-62.0,-181.0,472.0,32768.0,5516288.0,2344.0,2817.0,0.0
3598879000,0.010266657306751175,97402.68620268619,2320.0,2042.0,2055.0,1227.0,428.0,-380.0,-16016.0,865.0,-368.0,-27.0,-59.0,-179.0,468.0,32768.0,5516800.0,2541.0,2815.0,0.0
3599135000,0.010266863228834468,97400.73260073259,2333.0,2042.0,2055.0,1229.0,444.0,-280.0,-15964.0,862.0,-360.0,-23.0,-59.0,-179.0,468.0,32768.0,5516800.0,2384.0,2817.0,0.0
3599391000,0.010266863228834468,97400.73260073259,2143.0,2043.0,2050.0,1227.0,488.0,-296.0,-16000.0,872.0,-386.0,-15.0,-68.0,-175.0,470.0,32768.0,5515776.0,2305.0,2816.0,0.0
3599647000,0.010266863228834468,97400.73260073259,2265.0,2044.0,2052.0,1219.0,460.0,-308.0,-15908.0,883.0,-383.0,-16.0,-56.0,-178.0,473.0,32768.0,5515776.0,2277.0,2817.0,0.0
3599903000,0.010266863228834468,97400.73260073259,2257.0,2042.0,2051.0,1210.0,460.0,-244.0,-16332.0,873.0,-374.0,-26.0,-69.0,-177.0,467.0,32768.0,5516800.0,2264.0,2817.0,0.0
3600159000,0.010266863228834468,97400.73260073259,2248.0,2039.0,2051.0,1217.0,372.0,-248.0,-16400.0,858.0,-351.0,-32.0,-69.0,-177.0,467.0,32768.0,5516800.0,2258.0,2817.0,0.0
3600415000,0.010266863228834468,97400.73260073259,2261.0,2040.0,2050.0,1223.0,388.0,-252.0,-16020.0,865.0,-365.0,-36.0,-70.0,-181.0,468.0,32768.0,5516288.0,2248.0,2816.0,0.0
3600671000,0.010266657306751175,97402.68620268619,2220.0,2043.0,2050.0,1226.0,452.0,-272.0,-16040.0,864.0,-344.0,-29.0,-72.0,-175.0,468.0,32768.0,5516288.0,2251.0,2817.0,0.0
3600927000,0.010266863228834468,97400.73260073259,2247.0,2044.0,2052.0,1221.0,528.0,-296.0,-15984.0,860.0,-344.0,-51.0,-77.0,-179.0,470.0,32768.0,5516032.0,2245.0,2816.0,0.0
3601183000,0.010266863228834468,97400.73260073259,2230.0,2041.0,2053.0,1220.0,424.0,-300.0,-16128.0,882.0,-345.0,-36.0,-78.0,-174.0,470.0,32768.0,5516032.0,2249.0,2817.0,0.0
3601439000,0.010266863228834468,97400.73260073259,2201.0,2041.0,2052.0,1223.0,400.0,-324.0,-16084.0,868.0,-361.0,-25.0,-78.0,-174.0,470.0,32768.0,5516288.0,2244.0,2816.0,0.0
3601695000,0.010266863228834468,97400.73260073259,2246.0,2042.0,2053.0,1223.0,432.0,-324.0,-16080.0,879.0,-345.0,-26.0,-69.0,-183.0,467.0,32768.0,5516288.0,2249.0,2817.0,0.0
3601951000,0.010266863228834468,97400.73260073259,2215.0,2044.0,2053.0,1223.0,460.0,-324.0,-16028.0,882.0,-350.0,-8.0,-67.0,-177.0,471.0,32768.0,5516032.0,2251.0,2817.0,0.0
3602207000,0.010266863228834468,97400.73260073259,2242.0,2044.0,2052.0,1224.0,416.0,-308.0,-16000.0,893.0,-341.0,-37.0,-68.0,-179.0,468.0,32768.0,5516032.0,2252.0,2817.0,0.0
3602463000,0.010266863228834468,97400.73260073259,2292.0,2042.0,2053.0,1225.0,416.0,-316.0,-16028.0,867.0,-363.0,-38.0,-67.0,-181.0,471.0,32768.0,5515776.0,2499.0,2815.0,0.0
3602719000,0.010266863228834468,97400.73260073259,2241.0,2042.0,2052.0,1220.0,420.0,-276.0,-16128.0,868.0,-357.0,-35.0,-67.0,-181.0,471.0,32768.0,5515776.0,2364.0,2817.0,0.0
3602975000,0.010266863228834468,97400.73260073259,2364.0,2042.0,2051.0,1216.0,456.0,-260.0,-16220.0,880.0,-333.0,-33.0,-62.0,-180.0,471.0,32768.0,5515520.0,2303.0,2817.0,0.0
3603231000,0.010266863228834468,97400.73260073259,2318.0,2042.0,2049.0,1221.0,436.0,-312.0,-16144.0,876.0,-340.0,-25.0,-57.0,-181.0,468.0,32768.0,5515520.0,2276.0,2817.0,0.0
3603487000,0.010266863228834468,97400.73260073259,2297.0,2041.0,2051.0,1226.0,448.0,-280.0,-15964.0,869.0,-334.0,-26.0,-65.0,-181.0,473.0,32768.0,5516544.0,2256.0,2816.0,0.0
3603743000,0.010266863228834468,97400.73260073259,2286.0,2044.0,2052.0,1223.0,432.0,-276.0,-16016.0,876.0,-332.0,-35.0,-65.0,-181.0,473.0,32768.0,5516544.0,2480.0,2808.0,0.0
3603999000,0.010266863228834468,97400.73260073259,2217.0,2044.0,2052.0,1219.0,484.0,-288.0,-16176.0,873.0,-356.0,-20.0,-64.0,-179.0,469.0,32768.0,5516032.0,2356.0,2817.0,0.0
3604255000,0.010266863228834468,97400.73260073259,2369.0,2041.0,2050.0,1220.0,408.0,-260.0,-16088.0,871.0,-347.0,-38.0,-59.0,-179.0,462.0,32768.0,5516032.0,2534.0,2812.0,0.0
3604511000,0.010266863228834468,97400.73260073259,2310.0,2041.0,2054.0,1223.0,408.0,-296.0,-16028.0,874.0,-347.0,-25.0,-62.0,-180.0,468.0,32768.0,5516032.0,2374.0,2816.0,0.0
3604767000,0.010266863228834468,97400.73260073259,2381.0,2042.0,2052.0,1223.0,416.0,-256.0,-16068.0,865.0,-358.0,-24.0,-68.0,-179.0,469.0,32768.0,5516032.0,2534.0,2808.0,0.0
3605023000,0.010266863228834468,97400.73260073259,2353.0,2043.0,2053.0,1223.0,476.0,-308.0,-16096.0,858.0,-344.0,-15.0,-68.0,-179.0,469.0,32768.0,5515776.0,2374.0,2816.0,0.0
3605279000,0.010266863228834468,97400.73260073259,2164.0,2042.0,2052.0,1225.0,456.0,-312.0,-16012.0,871.0,-362.0,-28.0,-72.0,-176.0,471.0,32768.0,5515776.0,2309.0,2818.0,0.0
3605535000,0.010266863228834468,97400.73260073259,2237.0,2041.0,2052.0,1223.0,432.0,-320.0,-16012.0,868.0,-366.0,-49.0,-72.0,-184.0,472.0,32768.0,5515520.0,2480.0,2796.0,0.0
3605791000,0.010266863228834468,97400.73260073259,2209.0,2042.0,2055.0,1221.0,392.0,-316.0,-16116.0,878.0,-350.0,-25.0,-72.0,-174.0,467.0,32768.0,5515520.0,2356.0,2817.0,0.0
3606047000,0.010266863228834468,97400.73260073259,2280.0,2044.0,2052.0,1222.0,456.0,-332.0,-16144.0,868.0,-345.0,-31.0,-71.0,-178.0,472.0,32768.0,5516032.0,2293.0,2816.0,0.0
3606303000,0.010266863228834468,97400.73260073259,2323.0,2043.0,2051.0,1227.0,468.0,-292.0,-16052.0,865.0,-338.0,-41.0,-71.0,-178.0,472.0,32768.0,5516032.0,2271.0,2817.0,0.0
3606559000,0.010266863228834468,97400.73260073259,2263.0,2041.0,2050.0,1227.0,428.0,-276.0,-16096.0,860.0,-352.0,-22.0,-70.0,-174.0,468.0,32768.0,5516288.0,2255.0,2816.0,0.0
3606815000,0.010266863228834468,97400.73260073259,2273.0,2041.0,2052.0,1222.0,416.0,-256.0,-16076.0,866.0,-345.0,-30.0,-64.0,-180.0,470.0,32768.0,5516288.0,2247.0,2816.0,0.0
3607071000,0.010266863228834468,97400.73260073259,2240.0,2043.0,2052.0,1220.0,448.0,-232.0,-16108.0,861.0,-350.0,-29.0,-73.0,-177.0,472.0,32768.0,5516032.0,2243.0,2816.0,0.0
3607327000,0.010266863228834468,97400.73260073259,2210.0,2043.0,2053.0,1224.0,480.0,-252.0,-16132.0,856.0,-344.0,-2.0,-63.0,-177.0,468.0,32768.0,5516032.0,2248.0,2817.0,0.0
3607583000,0.010266863228834468,97400.73260073259,2239.0,2044.0,2052.0,1225.0,464.0,-268.0,-16120.0,868.0,-332.0,-24.0,-63.0,-177.0,468.0,32768.0,5516032.0,2244.0,2816.0,0.0
3607839000,0.010266863228834468,97400.73260073259,2218.0,2040.0,2053.0,1224.0,456.0,-292.0,-16072.0,857.0,-350.0,-33.0,-67.0,-181.0,472.0,32768.0,5516032.0,2480.0,2809.0,0.0
3608095000,0.010266863228834468,97400.73260073259,2215.0,2041.0,2052.0,1224.0,400.0,-268.0,-16068.0,867.0,-356.0,-36.0,-63.0,-176.0,469.0,32768.0,5516288.0,2349.0,2816.0,0.0
3608351000,0.010266863228834468,97400.73260073259,2308.0,2042.0,2051.0,1222.0,428.0,-264.0,-16040.0,867.0,-343.0,-37.0,-61.0,-178.0,467.0,32768.0,5516288.0,2297.0,2817.0,0.0
3608607000,0.010266863228834468,97400.73260073259,2326.0,2042.0,2054.0,1220.0,448.0,-304.0,-16128.0,864.0,-337.0,-37.0,-61.0,-178.0,467.0,32768.0,5516288.0,2520.0,2815.0,0.0
3608863000,0.010266863228834468,97400.73260073259,2363.0,2043.0,2052.0,1222.0,424.0,-320.0,-16116.0,864.0,-337.0,-37.0,-69.0,-182.0,467.0,32768.0,5516288.0,2607.0,2810.0,0.0
3609119000,0.010266863228834468,97400.73260073259,2371.0,2043.0,2052.0,1221.0,400.0,-292.0,-16084.0,868.0,-372.0,-21.0,-69.0,-176.0,471.0,32865.0,5516288.0,2414.0,2817.0,0.0
3609375000,0.010266863228834468,97400.73260073259,2243.0,2040.0,2052.0,1224.0,380.0,-300.0,-16032.0,864.0,-326.0,-31.0,-66.0,-173.0,470.0,32865.0,5516288.0,2326.0,2817.0,0.0
3609631000,0.010266863228834468,97400.73260073259,2360.0,2041.0,2052.0,1222.0,412.0,-256.0,-16068.0,841.0,-339.0,-28.0,-66.0,-174.0,469.0,32865.0,5516032.0,2534.0,2815.0,0.0
3609887000,0.010266863228834468,97400.73260073259,2321.0,2043.0,2051.0,1223.0,448.0,-272.0,-16108.0,877.0,-369.0,-38.0,-66.0,-174.0,469.0,32865.0,5516032.0,2613.0,2810.0,0.0
3610143000,0.010266863228834468,97400.73260073259,2406.0,2044.0,2051.0,1222.0,444.0,-316.0,-16048.0,896.0,-349.0,-29.0,-74.0,-180.0,468.0,32865.0,5516544.0,2411.0,2816.0,0.0
3610399000,0.010266863228834468,97400.73260073259,2240.0,2042.0,2051.0,1224.0,444.0,-276.0,-16060.0,886.0,-349.0,-25.0,-72.0,-179.0,468.0,32865.0,5516544.0,2326.0,2818.0,0.0
3610655000,0.010266863228834468,97400.73260073259,2282.0,2042.0,2052.0,1221.0,396.0,-248.0,-16048.0,879.0,-355.0,-13.0,-75.0,-178.0,465.0,32865.0,5516032.0,2279.0,2816.0,0.0
3610911000,0.010266863228834468,97400.73260073259,2294.0,2043.0,2052.0,1221.0,388.0,-272.0,-16072.0,872.0,-356.0,-19.0,-70.0,-174.0,473.0,32865.0,5516032.0,2258.0,2816.0,0.0
3611167000,0.010266863228834468,97400.73260073259,2228.0,2043.0,2051.0,1222.0,420.0,-256.0,-16088.0,866.0,-336.0,-23.0,-70.0,-174.0,473.0,32865.0,5516032.0,2248.0,2816.0,0.0
3611423000,0.010266863228834468,97400.73260073259,2262.0,2043.0,2050.0,1222.0,412.0,-256.0,-16076.0,888.0,-351.0,-27.0,-72.0,-173.0,469.0,32865.0,5516032.0,2252.0,2818.0,0.0
3611679000,0.010266863228834468,97400.73260073259,2221.0,2042.0,2052.0,1224.0,412.0,-276.0,-16024.0,888.0,-346.0,-22.0,-71.0,-178.0,477.0,32865.0,5515520.0,2239.0,2816.0,0.0
3611935000,0.010266863228834468,97400.73260073259,2191.0,2040.0,2053.0,1224.0,440.0,-316.0,-16096.0,862.0,-344.0,-37.0,-65.0,-176.0,469.0,32865.0,5515520.0,2240.0,2816.0,0.0
3612191000,0.010266863228834468,97400.73260073259,2218.0,2041.0,2053.0,1222.0,388.0,-272.0,-16108.0,859.0,-350.0,-24.0,-65.0,-176.0,469.0,32865.0,5516288.0,2240.0,2816.0,0.0
3612447000,0.010266863228834468,97400.73260073259,2188.0,2042.0,2051.0,1221.0,432.0,-332.0,-16140.0,871.0,-349.0,-31.0,-87.0,-178.0,471.0,32865.0,5516288.0,2248.0,2818.0,0.0
3612703000,0.010266863228834468,97400.73260073259,2236.0,2041.0,2052.0,1221.0,404.0,-244.0,-16108.0,864.0,-347.0,-38.0,-63.0,-180.0,468.0,32865.0,5516032.0,2251.0,2817.0,0.0
3612959000,0.010266863228834468,97400.73260073259,2252.0,2044.0,2053.0,1223.0,416.0,-288.0,-16088.0,884.0,-345.0,-19.0,-54.0,-173.0,470.0,32865.0,5516032.0,2484.0,2810.0,0.0
3613215000,0.010266657306751175,97402.68620268619,2201.0,2041.0,2052.0,1222.0,384.0,-292.0,-16112.0,877.0,-350.0,-14.0,-63.0,-178.0,470.0,32865.0,5516288.0,2351.0,2816.0,0.0
3613471000,0.010266863228834468,97400.73260073259,2326.0,2042.0,2052.0,1221.0,404.0,-256.0,-16076.0,877.0,-349.0,-22.0,-63.0,-178.0,470.0,32865.0,5516288.0,2297.0,2817.0,0.0
3613727000,0.010266863228834468,97400.73260073259,2262.0,2041.0,2052.0,1222.0,412.0,-284.0,-16060.0,862.0,-339.0,-31.0,-60.0,-181.0,464.0,32865.0,5516032.0,2475.0,2796.0,0.0
3613983000,0.010266863228834468,97400.73260073259,2273.0,2044.0,2052.0,1221.0,392.0,-260.0,-16084.0,877.0,-357.0,-40.0,-66.0,-175.0,470.0,32865.0,5516032.0,2593.0,2811.0,0.0
3614239000,0.010266863228834468,97400.73260073259,2334.0,2042.0,2050.0,1223.0,420.0,-272.0,-16064.0,860.0,-345.0,-38.0,-74.0,-182.0,473.0,32865.0,5516032.0,2401.0,2816.0,0.0
3614495000,0.010266863228834468,97400.73260073259,2160.0,2042.0,2051.0,1222.0,408.0,-284.0,-16056.0,885.0,-351.0,-39.0,-69.0,-175.0,471.0,32865.0,5516032.0,2313.0,2816.0,0.0
3614751000,0.010266863228834468,97400.73260073259,2269.0,2043.0,2052.0,1223.0,408.0,-268.0,-16108.0,884.0,-347.0,-11.0,-69.0,-175.0,471.0,32865.0,5516288.0,2273.0,2816.0,0.0
3615007000,0.010266863228834468,97400.73260073259,2257.0,2041.0,2051.0,1222.0,456.0,-260.0,-16064.0,896.0,-331.0,-31.0,-68.0,-174.0,468.0,32865.0,5516288.0,2263.0,2817.0,0.0
3615263000,0.010266657306751175,97402.68620268619,2261.0,2041.0,2052.0,1222.0,428.0,-288.0,-16088.0,862.0,-330.0,-12.0,-70.0,-178.0,472.0,32865.0,5516032.0,2258.0,2818.0,0.0
3615519000,0.010266863228834468,97400.73260073259,2309.0,2043.0,2053.0,1223.0,420.0,-308.0,-16116.0,872.0,-352.0,-19.0,-69.0,-188.0,470.0,32865.0,5516032.0,2495.0,2813.0,0.0
3615775000,0.010266657306751175,97402.68620268619,2227.0,2040.0,2052.0,1221.0,392.0,-244.0,-16136.0,873.0,-342.0,-22.0,-70.0,-178.0,468.0,32865.0,5516544.0,2356.0,2816.0,0.0
3616031000,0.010266863228834468,97400.73260073259,2371.0,2043.0,2052.0,1222.0,396.0,-284.0,-16060.0,892.0,-347.0,-16.0,-70.0,-178.0,468.0,32865.0,5516544.0,2533.0,2810.0,0.0
3616287000,0.010266863228834468,97400.73260073259,2327.0,2043.0,2051.0,1222.0,392.0,-320.0,-16072.0,868.0,-358.0,-30.0,-65.0,-178.0,464.0,32865.0,5516544.0,2380.0,2817.0,0.0
3616543000,0.010266863228834468,97400.73260073259,2172.0,2040.0,2052.0,1221.0,388.0,-312.0,-16068.0,882.0,-363.0,-31.0,-66.0,-179.0,472.0,32865.0,5516544.0,2312.0,2818.0,0.0
3616799000,0.010266863228834468,97400.73260073259,2265.0,2043.0,2051.0,1224.0,428.0,-264.0,-16076.0,877.0,-349.0,-42.0,-57.0,-175.0,469.0,32865.0,5516800.0,2273.0,2816.0,0.0
3617055000,0.010266863228834468,97400.73260073259,2255.0,2043.0,2050.0,1224.0,436.0,-288.0,-16068.0,878.0,-360.0,-30.0,-57.0,-175.0,469.0,32865.0,5516800.0,2494.0,2810.0,0.0
3617311000,0.010266863228834468,97400.73260073259,2260.0,2043.0,2050.0,1222.0,452.0,-260.0,-16088.0,886.0,-339.0,-41.0,-66.0,-184.0,465.0,32865.0,5516544.0,2356.0,2816.0,0.0
3617567000,0.010266863228834468,97400.73260073259,2325.0,2042.0,2051.0,1225.0,424.0,-240.0,-16080.0,884.0,-354.0,-32.0,-64.0,-175.0,477.0,32865.0,5516544.0,2301.0,2818.0,0.0
3617823000,0.010266657306751175,97402.68620268619,2293.0,2042.0,2051.0,1222.0,436.0,-260.0,-16112.0,878.0,-335.0,-39.0,-63.0,-171.0,469.0,32865.0,5516288.0,2268.0,2816.0,0.0
3618079000,0.010266863228834468,97400.73260073259,2302.0,2041.0,2052.0,1221.0,376.0,-284.0,-16080.0,884.0,-346.0,-17.0,-61.0,-179.0,473.0,32865.0,5516288.0,2253.0,2816.0,0.0
3618335000,0.010266863228834468,97400.73260073259,2232.0,2042.0,2051.0,1220.0,360.0,-296.0,-16084.0,859.0,-351.0,-29.0,-61.0,-179.0,473.0,32865.0,5516032.0,2246.0,2816.0,0.0
3618591000,0.010266863228834468,97400.73260073259,2257.0,2043.0,2053.0,1223.0,412.0,-280.0,-16072.0,869.0,-350.0,-29.0,-69.0,-175.0,470.0,32865.0,5516032.0,2251.0,2818.0,0.0
3618847000,0.010266863228834468,97400.73260073259,2242.0,2042.0,2053.0,1222.0,416.0,-288.0,-16056.0,869.0,-371.0,-41.0,-67.0,-183.0,474.0,32865.0,5516288.0,2245.0,2816.0,0.0
3619103000,0.010266863228834468,97400.73260073259,2196.0,2041.0,2054.0,1223.0,432.0,-348.0,-16116.0,876.0,-339.0,-42.0,-65.0,-180.0,468.0,32865.0,5516288.0,2242.0,2816.0,0.0
3619359000,0.010266863228834468,97400.73260073259,2231.0,2042.0,2054.0,1223.0,432.0,-312.0,-16088.0,864.0,-326.0,-19.0,-74.0,-176.0,467.0,32865.0,5516800.0,2241.0,2816.0,0.0
3619615000,0.010266863228834468,97400.73260073259,2205.0,2042.0,2054.0,1221.0,412.0,-300.0,-16076.0,879.0,-343.0,-11.0,-74.0,-176.0,467.0,32865.0,5516800.0,2247.0,2817.0,0.0
3619871000,0.010266863228834468,97400.73260073259,2228.0,2042.0,2052.0,1222.0,432.0,-288.0,-16080.0,870.0,-327.0,-28.0,-67.0,-180.0,473.0,32865.0,5515776.0,2250.0,2817.0,0.0
3620127000,0.010266863228834468,97400.73260073259,2264.0,2043.0,2052.0,1220.0,436.0,-276.0,-16084.0,880.0,-343.0,-31.0,-70.0,-181.0,465.0,32865.0,5515776.0,2485.0,2812.0,0.0
3620383000,0.010266863228834468,97400.73260073259,2210.0,2042.0,2053.0,1222.0,432.0,-256.0,-16092.0,871.0,-361.0,-18.0,-66.0,-178.0,472.0,32865.0,5516032.0,2358.0,2817.0,0.0
3620639000,0.010266863228834468,97400.73260073259,2328.0,2043.0,2054.0,1223.0,404.0,-280.0,-16092.0,872.0,-350.0,-19.0,-84.0,-177.0,465.0,32865.0,5516032.0,2294.0,2816.0,0.0
3620895000,0.010266863228834468,97400.73260073259,2301.0,2041.0,2050.0,1223.0,416.0,-252.0,-16088.0,885.0,-349.0,-25.0,-84.0,-177.0,465.0,32865.0,5515776.0,2272.0,2817.0,0.0
3621151000,0.010266863228834468,97400.73260073259,2311.0,2041.0,2051.0,1223.0,420.0,-276.0,-16088.0,863.0,-337.0,-32.0,-69.0,-180.0,473.0,32865.0,5515776.0,2495.0,2812.0,0.0
3621407000,0.010266863228834468,97400.73260073259,2296.0,2044.0,2049.0,1223.0,424.0,-244.0,-16096.0,863.0,-344.0,-24.0,-64.0,-172.0,475.0,32865.0,5516544.0,2362.0,2817.0,0.0
3621663000,0.010266863228834468,97400.73260073259,2116.0,2042.0,2051.0,1221.0,424.0,-256.0,-16068.0,864.0,-343.0,-25.0,-63.0,-183.0,466.0,32865.0,5516544.0,2304.0,2818.0,0.0
3621919000,0.010266863228834468,97400.73260073259,2233.0,2043.0,2052.0,1222.0,412.0,-248.0,-16084.0,860.0,-347.0,-27.0,-63.0,-183.0,466.0,32865.0,5516544.0,2269.0,2816.0,0.0
3622175000,0.010266863228834468,97400.73260073259,2237.0,2042.0,2052.0,1221.0,416.0,-292.0,-16052.0,871.0,-352.0,-16.0,-80.0,-178.0,466.0,32865.0,5516544.0,2260.0,2817.0,0.0
3622431000,0.010266863228834468,97400.73260073259,2230.0,2043.0,2052.0,1223.0,444.0,-276.0,-16096.0,888.0,-360.0,-28.0,-69.0,-177.0,473.0,32865.0,5516288.0,2256.0,2817.0,0.0
3622687000,0.010266863228834468,97400.73260073259,2266.0,2042.0,2052.0,1223.0,408.0,-288.0,-16136.0,869.0,-340.0,-29.0,-62.0,-175.0,467.0,32865.0,5516288.0,2254.0,2817.0,0.0
3622943000,0.010266657306751175,97402.68620268619,2266.0,2042.0,2054.0,1221.0,380.0,-292.0,-16080.0,871.0,-358.0,-27.0,-65.0,-176.0,473.0,32865.0,5516288.0,2500.0,2815.0,0.0
3623199000,0.010266863228834468,97400.73260073259,2302.0,2041.0,2053.0,1222.0,424.0,-284.0,-16136.0,881.0,-355.0,-32.0,-65.0,-176.0,473.0,32865.0,5516288.0,2599.0,2812.0,0.0
3623455000,0.010266863228834468,97400.73260073259,2358.0,2043.0,2052.0,1222.0,416.0,-292.0,-16096.0,863.0,-359.0,-23.0,-67.0,-174.0,467.0,32865.0,5516288.0,2411.0,2817.0,0.0
3623711000,0.010266863228834468,97400.73260073259,2387.0,2042.0,2052.0,1221.0,396.0,-260.0,-16080.0,860.0,-358.0,-36.0,-69.0,-178.0,473.0,32865.0,5516288.0,2533.0,2797.0,0.0
3623967000,0.010266863228834468,97400.73260073259,2371.0,2042.0,2052.0,1220.0,440.0,-240.0,-16088.0,865.0,-358.0,-39.0,-71.0,-175.0,470.0,32865.0,5516800.0,2374.0,2816.0,0.0
3624223000,0.010266863228834468,97400.73260073259,2364.0,2041.0,2050.0,1222.0,388.0,-240.0,-16080.0,878.0,-336.0,-37.0,-68.0,-179.0,468.0,32865.0,5516800.0,2301.0,2816.0,0.0
3624479000,0.010266863228834468,97400.73260073259,2345.0,2042.0,2049.0,1221.0,420.0,-272.0,-16112.0,881.0,-351.0,-26.0,-68.0,-179.0,468.0,32865.0,5516032.0,2268.0,2816.0,0.0
3624735000,0.010266863228834468,97400.73260073259,2323.0,2044.0,2050.0,1220.0,452.0,-288.0,-16116.0,868.0,-344.0,-32.0,-68.0,-179.0,471.0,32865.0,5516032.0,2261.0,2818.0,0.0
3624991000,0.010266657306751175,97402.68620268619,2252.0,2042.0,2051.0,1224.0,420.0,-236.0,-16088.0,871.0,-346.0,-21.0,-69.0,-176.0,466.0,32865.0,5516544.0,2250.0,2816.0,0.0
3625247000,0.010266863228834468,97400.73260073259,2301.0,2041.0,2052.0,1223.0,428.0,-260.0,-16040.0,879.0,-357.0,-32.0,-84.0,-179.0,471.0,32865.0,5516544.0,2485.0,2812.0,0.0
3625503000,0.010266863228834468,97400.73260073259,2228.0,2043.0,2053.0,1223.0,420.0,-268.0,-16156.0,855.0,-355.0,-29.0,-84.0,-179.0,471.0,32865.0,5516288.0,2351.0,2816.0,0.0
3625759000,0.010266863228834468,97400.73260073259,2321.0,2042.0,2053.0,1219.0,456.0,-300.0,-16120.0,855.0,-355.0,-29.0,-67.0,-184.0,475.0,32865.0,5516288.0,2299.0,2818.0,0.0
3626015000,0.010266863228834468,97400.73260073259,2327.0,2042.0,2054.0,1222.0,404.0,-296.0,-16108.0,876.0,-351.0,-29.0,-62.0,-181.0,473.0,32865.0,5515776.0,2267.0,2816.0,0.0
3626271000,0.010266657306751175,97402.68620268619,2258.0,2043.0,2053.0,1223.0,412.0,-328.0,-16044.0,882.0,-344.0,-40.0,-67.0,-181.0,465.0,32865.0,5515776.0,2253.0,2816.0,0.0
3626527000,0.010266863228834468,97400.73260073259,2273.0,2041.0,2053.0,1220.0,416.0,-276.0,-16020.0,881.0,-360.0,-24.0,-85.0,-177.0,478.0,32865.0,5516288.0,2246.0,2816.0,0.0
3626783000,0.010266863228834468,97400.73260073259,2239.0,2043.0,2053.0,1222.0,412.0,-268.0,-16080.0,892.0,-346.0,-32.0,-85.0,-177.0,478.0,32865.0,5516288.0,2250.0,2817.0,0.0
3627039000,0.010266863228834468,97400.73260073259,2221.0,2042.0,2053.0,1222.0,400.0,-292.0,-16124.0,875.0,-337.0,-22.0,-59.0,-178.0,471.0,32865.0,5516032.0,2245.0,2816.0,0.0
3627295000,0.010266863228834468,97400.73260073259,2249.0,2043.0,2053.0,1221.0,424.0,-296.0,-16092.0,881.0,-337.0,-34.0,-65.0,-173.0,466.0,32865.0,5516032.0,2249.0,2817.0,0.0
3627551000,0.010266863228834468,97400.73260073259,2214.0,2043.0,2051.0,1222.0,436.0,-268.0,-16060.0,877.0,-346.0,-37.0,-62.0,-185.0,465.0,32865.0,5516800.0,2251.0,2817.0,0.0
3627807000,0.010266863228834468,97400.73260073259,2252.0,2044.0,2053.0,1224.0,472.0,-288.0,-16088.0,888.0,-359.0,-20.0,-67.0,-174.0,474.0,32865.0,5516800.0,2252.0,2817.0,0.0
3628063000,0.010266863228834468,97400.73260073259,2225.0,2043.0,2052.0,1223.0,456.0,-256.0,-16096.0,870.0,-341.0,-26.0,-67.0,-174.0,474.0,32865.0,5516800.0,2245.0,2816.0,0.0
3628319000,0.010266657306751175,97402.68620268619,2245.0,2043.0,2050.0,1223.0,452.0,-276.0,-16104.0,865.0,-363.0,-11.0,-63.0,-175.0,464.0,32865.0,5516800.0,2489.0,2813.0,0.0
3628575000,0.010266863228834468,97400.73260073259,2253.0,2043.0,2051.0,1222.0,428.0,-324.0,-16016.0,874.0,-335.0,-23.0,-66.0,-181.0,470.0,32865.0,5516544.0,2353.0,2816.0,0.0
3628831000,0.010266657306751175,97402.68620268619,2297.0,2041.0,2052.0,1219.0,412.0,-272.0,-16084.0,886.0,-355.0,-24.0,-70.0,-183.0,470.0,32865.0,5516544.0,2299.0,2817.0,0.0
3629087000,0.010266863228834468,97400.73260073259,2318.0,2043.0,2052.0,1221.0,456.0,-292.0,-16096.0,871.0,-351.0,-41.0,-63.0,-176.0,467.0,32865.0,5517312.0,2267.0,2816.0,0.0
3629343000,0.010266863228834468,97400.73260073259,2334.0,2043.0,2053.0,1224.0,444.0,-304.0,-16100.0,865.0,-343.0,-23.0,-63.0,-176.0,467.0,32865.0,5517312.0,2499.0,2813.0,0.0
3629599000,0.010266863228834468,97400.73260073259,2265.0,2043.0,2055.0,1222.0,440.0,-308.0,-16072.0,862.0,-352.0,-29.0,-71.0,-177.0,469.0,32865.0,5516288.0,2364.0,2817.0,0.0
3629855000,0.010266863228834468,97400.73260073259,2166.0,2042.0,2054.0,1223.0,412.0,-292.0,-16036.0,862.0,-349.0,-32.0,-66.0,-177.0,473.0,32865.0,5516288.0,2304.0,2818.0,0.0
3630111000,0.010266863228834468,97400.73260073259,2187.0,2043.0,2054.0,1222.0,472.0,-268.0,-16076.0,868.0,-332.0,-20.0,-67.0,-177.0,470.0,32865.0,5516800.0,2484.0,2797.0,0.0
3630367000,0.010266863228834468,97400.73260073259,2200.0,2043.0,2053.0,1222.0,460.0,-304.0,-16128.0,881.0,-356.0,-29.0,-67.0,-177.0,470.0,32865.0,5516800.0,2351.0,2816.0,0.0
3630623000,0.010266863228834468,97400.73260073259,2305.0,2042.0,2052.0,1223.0,448.0,-292.0,-16116.0,872.0,-350.0,-17.0,-63.0,-176.0,468.0,32865.0,5516800.0,2298.0,2817.0,0.0
3630879000,0.010266657306751175,97402.68620268619,2280.0,2042.0,2052.0,1225.0,464.0,-264.0,-16024.0,875.0,-343.0,-36.0,-63.0,-180.0,472.0,32865.0,5516800.0,2273.0,2817.0,0.0
3631135000,0.010266863228834468,97400.73260073259,2306.0,2042.0,2050.0,1223.0,396.0,-252.0,-16084.0,850.0,-332.0,-38.0,-72.0,-176.0,471.0,32865.0,5516032.0,2255.0,2816.0,0.0
3631391000,0.010266863228834468,97400.73260073259,2250.0,2044.0,2050.0,1222.0,452.0,-268.0,-16112.0,870.0,-362.0,-2.0,-61.0,-179.0,467.0,32865.0,5516032.0,2247.0,2816.0,0.0
3631647000,0.010266863228834468,97400.73260073259,2226.0,2043.0,2052.0,1223.0,472.0,-292.0,-16124.0,879.0,-350.0,-39.0,-61.0,-179.0,467.0,32865.0,5516544.0,2244.0,2816.0,0.0
3631903000,0.010266863228834468,97400.73260073259,2249.0,2043.0,2053.0,1222.0,440.0,-288.0,-16072.0,861.0,-345.0,-24.0,-63.0,-177.0,472.0,32865.0,5516544.0,2249.0,2818.0,0.0
3632159000,0.010266863228834468,97400.73260073259,2196.0,2042.0,2053.0,1221.0,408.0,-248.0,-16076.0,862.0,-359.0,-15.0,-72.0,-187.0,471.0,32865.0,5516544.0,2244.0,2816.0,0.0
3632415000,0.010266863228834468,97400.73260073259,2244.0,2045.0,2052.0,1221.0,416.0,-280.0,-16084.0,868.0,-324.0,-29.0,-62.0,-178.0,470.0,32865.0,5516544.0,2249.0,2817.0,0.0
3632671000,0.010266863228834468,97400.73260073259,2272.0,2044.0,2052.0,1223.0,440.0,-292.0,-16128.0,874.0,-348.0,-34.0,-69.0,-177.0,470.0,32865.0,5516288.0,2498.0,2815.0,0.0
3632927000,0.010266863228834468,97400.73260073259,2245.0,2044.0,2052.0,1221.0,424.0,-300.0,-16120.0,873.0,-348.0,-18.0,-69.0,-177.0,470.0,32865.0,5516288.0,2364.0,2817.0,0.0
3633183000,0.010266863228834468,97400.73260073259,2346.0,2041.0,2053.0,1221.0,408.0,-292.0,-16072.0,874.0,-340.0,-34.0,-68.0,-175.0,467.0,32865.0,5516288.0,2297.0,2816.0,0.0
3633439000,0.010266863228834468,97400.73260073259,2286.0,2042.0,2054.0,1223.0,420.0,-296.0,-16072.0,870.0,-341.0,-37.0,-66.0,-173.0,470.0,32865.0,5516288.0,2488.0,2799.0,0.0
3633695000,0.010266863228834468,97400.73260073259,2267.0,2041.0,2052.0,1222.0,436.0,-308.0,-16092.0,865.0,-354.0,-26.0,-74.0,-179.0,472.0,32865.0,5516544.0,2352.0,2816.0,0.0
3633951000,0.010266863228834468,97400.73260073259,2329.0,2043.0,2054.0,1223.0,436.0,-284.0,-16104.0,866.0,-351.0,-31.0,-74.0,-179.0,472.0,32865.0,5516544.0,2299.0,2817.0,0.0
3634207000,0.010266863228834468,97400.73260073259,2272.0,2041.0,2051.0,1223.0,436.0,-324.0,-16108.0,859.0,-350.0,-29.0,-64.0,-181.0,472.0,32865.0,5516032.0,2475.0,2796.0,0.0
3634463000,0.010266863228834468,97400.73260073259,2260.0,2043.0,2053.0,1223.0,456.0,-304.0,-16068.0,870.0,-336.0,-31.0,-85.0,-181.0,465.0,32865.0,5516032.0,2347.0,2816.0,0.0
3634719000,0.010266863228834468,97400.73260073259,2292.0,2042.0,2051.0,1222.0,424.0,-300.0,-16072.0,872.0,-352.0,-25.0,-68.0,-179.0,471.0,32865.0,5516288.0,2296.0,2817.0,0.0
3634975000,0.010266863228834468,97400.73260073259,2314.0,2040.0,2052.0,1222.0,452.0,-268.0,-16096.0,877.0,-353.0,-23.0,-63.0,-176.0,469.0,32865.0,5516288.0,2272.0,2817.0,0.0
3635231000,0.010266863228834468,97400.73260073259,2294.0,2041.0,2052.0,1223.0,432.0,-232.0,-16080.0,861.0,-345.0,-9.0,-63.0,-176.0,469.0,32865.0,5516800.0,2255.0,2816.0,0.0
3635487000,0.010266863228834468,97400.73260073259,2278.0,2042.0,2052.0,1222.0,420.0,-268.0,-16064.0,862.0,-360.0,-41.0,-84.0,-178.0,474.0,32865.0,5516800.0,2494.0,2814.0,0.0
3635743000,0.010266863228834468,97400.73260073259,2283.0,2042.0,2052.0,1222.0,452.0,-280.0,-16080.0,866.0,-355.0,-13.0,-58.0,-181.0,470.0,32865.0,5516288.0,2355.0,2816.0,0.0
3635999000,0.010266863228834468,97400.73260073259,2315.0,2043.0,2052.0,1221.0,432.0,-276.0,-16068.0,876.0,-333.0,-15.0,-66.0,-177.0,471.0,32865.0,5516288.0,2300.0,2817.0,0.0
3636255000,0.010266863228834468,97400.73260073259,2316.0,2042.0,2052.0,1224.0,436.0,-300.0,-16136.0,880.0,-355.0,-33.0,-65.0,-181.0,469.0,32865.0,5516032.0,2267.0,2816.0,0.0
3636511000,0.010266863228834468,97400.73260073259,2342.0,2042.0,2053.0,1223.0,472.0,-244.0,-16088.0,892.0,-337.0,-26.0,-65.0,-181.0,469.0,32865.0,5516032.0,2499.0,2813.0,0.0
3636767000,0.010266863228834468,97400.73260073259,2264.0,2044.0,2052.0,1224.0,464.0,-300.0,-16044.0,877.0,-360.0,-34.0,-57.0,-173.0,472.0,32865.0,5516544.0,2364.0,2817.0,0.0
3637023000,0.010266863228834468,97400.73260073259,2166.0,2042.0,2053.0,1224.0,392.0,-296.0,-16060.0,846.0,-343.0,-22.0,-61.0,-180.0,473.0,32865.0,5516544.0,2304.0,2817.0,0.0
3637279000,0.010266863228834468,97400.73260073259,2221.0,2044.0,2052.0,1222.0,444.0,-336.0,-16080.0,867.0,-345.0,-17.0,-62.0,-178.0,471.0,32865.0,5516032.0,2276.0,2817.0,0.0
3637535000,0.010266863228834468,97400.73260073259,2265.0,2043.0,2052.0,1221.0,460.0,-320.0,-16116.0,868.0,-358.0,-19.0,-74.0,-175.0,475.0,32865.0,5516032.0,2497.0,2812.0,0.0
3637791000,0.010266863228834468,97400.73260073259,2265.0,2043.0,2051.0,1220.0,428.0,-260.0,-16120.0,859.0,-350.0,-34.0,-74.0,-175.0,475.0,32865.0,5516288.0,2357.0,2816.0,0.0
3638047000,0.010266863228834468,97400.73260073259,2304.0,2043.0,2051.0,1223.0,412.0,-272.0,-16040.0,874.0,-364.0,-28.0,-70.0,-182.0,468.0,32865.0,5516288.0,2302.0,2818.0,0.0
3638303000,0.010266863228834468,97400.73260073259,2329.0,2042.0,2050.0,1223.0,452.0,-232.0,-16040.0,881.0,-364.0,-35.0,-63.0,-178.0,471.0,32865.0,5516288.0,2268.0,2816.0,0.0
3638559000,0.010266863228834468,97400.73260073259,2289.0,2043.0,2051.0,1221.0,448.0,-264.0,-16104.0,897.0,-348.0,-38.0,-71.0,-177.0,467.0,32865.0,5516288.0,2260.0,2817.0,0.0
3638815000,0.010266863228834468,97400.73260073259,2242.0,2041.0,2051.0,1221.0,452.0,-280.0,-16128.0,879.0,-341.0,-11.0,-71.0,-177.0,467.0,32865.0,5516288.0,2248.0,2816.0,0.0
3639071000,0.010266863228834468,97400.73260073259,2274.0,2041.0,2052.0,1218.0,396.0,-292.0,-16068.0,872.0,-349.0,-30.0,-75.0,-181.0,471.0,32865.0,5516288.0,2253.0,2818.0,0.0
3639327000,0.010266863228834468,97400.73260073259,2224.0,2041.0,2052.0,1222.0,420.0,-256.0,-16040.0,874.0,-347.0,-35.0,-70.0,-179.0,471.0,32865.0,5517056.0,2252.0,2817.0,0.0
3639583000,0.010266863228834468,97400.73260073259,2251.0,2043.0,2052.0,1220.0,444.0,-288.0,-16108.0,863.0,-347.0,-30.0,-66.0,-179.0,474.0,32865.0,5517056.0,2252.0,2817.0,0.0
3639839000,0.010266863228834468,97400.73260073259,2243.0,2043.0,2052.0,1224.0,464.0,-312.0,-16068.0,877.0,-344.0,-31.0,-64.0,-173.0,471.0,32865.0,5516544.0,2252.0,2817.0,0.0
3640095000,0.010266657306751175,97402.68620268619,2214.0,2043.0,2051.0,1224.0,436.0,-292.0,-16028.0,870.0,-347.0,-37.0,-64.0,-173.0,471.0,32865.0,5516544.0,2252.0,2817.0,0.0
3640351000,0.010266863228834468,97400.73260073259,2250.0,2043.0,2052.0,1224.0,452.0,-288.0,-16052.0,862.0,-338.0,-32.0,-67.0,-177.0,471.0,32865.0,5516544.0,2246.0,2816.0,0.0
3640607000,0.010266863228834468,97400.73260073259,2213.0,2042.0,2054.0,1223.0,484.0,-308.0,-16112.0,876.0,-343.0,-17.0,-64.0,-176.0,472.0,32865.0,5516544.0,2249.0,2817.0,0.0
3640863000,0.010266863228834468,97400.73260073259,2221.0,2043.0,2052.0,1222.0,444.0,-292.0,-16092.0,863.0,-342.0,-11.0,-65.0,-174.0,468.0,32865.0,5516288.0,2244.0,2816.0,0.0
3641119000,0.010266863228834468,97400.73260073259,2233.0,2042.0,2053.0,1221.0,432.0,-336.0,-16068.0,866.0,-360.0,-4.0,-62.0,-175.0,476.0,32865.0,5516288.0,2249.0,2817.0,0.0
3641375000,0.010266863228834468,97400.73260073259,2189.0,2043.0,2053.0,1222.0,428.0,-304.0,-16064.0,884.0,-353.0,-14.0,-62.0,-175.0,476.0,32865.0,5516288.0,2244.0,2816.0,0.0
3641631000,0.010266863228834468,97400.73260073259,2277.0,2042.0,2052.0,1222.0,468.0,-316.0,-16052.0,881.0,-343.0,-22.0,-62.0,-182.0,466.0,32865.0,5516288.0,2489.0,2814.0,0.0
3641887000,0.010266863228834468,97400.73260073259,2232.0,2043.0,2051.0,1222.0,432.0,-308.0,-16076.0,880.0,-357.0,-28.0,-74.0,-178.0,467.0,32865.0,5516288.0,2359.0,2817.0,0.0
3642143000,0.010266863228834468,97400.73260073259,2321.0,2043.0,2050.0,1222.0,428.0,-252.0,-16076.0,849.0,-353.0,-39.0,-72.0,-179.0,468.0,32865.0,5516288.0,2302.0,2817.0,0.0
3642399000,0.010266863228834468,97400.73260073259,2383.0,2042.0,2051.0,1220.0,412.0,-244.0,-16116.0,884.0,-358.0,-39.0,-70.0,-182.0,472.0,32865.0,5516288.0,2522.0,2815.0,0.0
3642655000,0.010266863228834468,97400.73260073259,2311.0,2041.0,2051.0,1221.0,452.0,-288.0,-16088.0,884.0,-358.0,-39.0,-70.0,-182.0,472.0,32865.0,5516288.0,2375.0,2817.0,0.0
3642911000,0.010266863228834468,97400.73260073259,2200.0,2042.0,2050.0,1222.0,424.0,-284.0,-16028.0,871.0,-335.0,-34.0,-73.0,-180.0,468.0,32865.0,5515776.0,2308.0,2817.0,0.0
3643167000,0.010266863228834468,97400.73260073259,2248.0,2044.0,2054.0,1223.0,452.0,-280.0,-16068.0,873.0,-347.0,-27.0,-70.0,-185.0,468.0,32865.0,5515776.0,2278.0,2817.0,0.0
3643423000,0.010266863228834468,97400.73260073259,2244.0,2044.0,2050.0,1222.0,420.0,-276.0,-16068.0,871.0,-340.0,-18.0,-77.0,-178.0,469.0,32865.0,5516288.0,2257.0,2816.0,0.0
3643679000,0.010266863228834468,97400.73260073259,2256.0,2042.0,2053.0,1222.0,448.0,-280.0,-16068.0,879.0,-353.0,-32.0,-77.0,-178.0,469.0,32865.0,5516288.0,2248.0,2816.0,0.0
3643935000,0.010266863228834468,97400.73260073259,2214.0,2042.0,2054.0,1222.0,440.0,-284.0,-16136.0,865.0,-348.0,-28.0,-65.0,-177.0,474.0,32865.0,5516288.0,2250.0,2817.0,0.0
3644191000,0.010266863228834468,97400.73260073259,2252.0,2041.0,2053.0,1221.0,436.0,-312.0,-16072.0,847.0,-355.0,-30.0,-65.0,-180.0,474.0,32865.0,5516288.0,2252.0,2817.0,0.0
3644447000,0.010266863228834468,97400.73260073259,2241.0,2043.0,2052.0,1223.0,428.0,-300.0,-16064.0,869.0,-342.0,-15.0,-65.0,-171.0,472.0,32865.0,5516288.0,2251.0,2816.0,0.0
3644703000,0.010266863228834468,97400.73260073259,2212.0,2043.0,2052.0,1221.0,464.0,-332.0,-16052.0,871.0,-357.0,-32.0,-65.0,-175.0,467.0,32865.0,5516288.0,2245.0,2816.0,0.0
3644959000,0.010266863228834468,97400.73260073259,2237.0,2042.0,2052.0,1219.0,440.0,-296.0,-16076.0,866.0,-347.0,-26.0,-65.0,-175.0,467.0,32865.0,5516288.0,2242.0,2816.0,0.0
3645215000,0.010266863228834468,97400.73260073259,2206.0,2040.0,2051.0,1221.0,460.0,-296.0,-16096.0,878.0,-344.0,-42.0,-61.0,-183.0,468.0,32865.0,5516288.0,2249.0,2818.0,0.0
3645471000,0.010266863228834468,97400.73260073259,2241.0,2042.0,2051.0,1222.0,436.0,-304.0,-16104.0,876.0,-353.0,-30.0,-64.0,-172.0,468.0,32865.0,5516544.0,2251.0,2817.0,0.0
3645727000,0.010266863228834468,97400.73260073259,2274.0,2044.0,2053.0,1224.0,476.0,-276.0,-16028.0,882.0,-345.0,-28.0,-61.0,-175.0,473.0,32865.0,5516544.0,2492.0,2814.0,0.0
3645983000,0.010266863228834468,97400.73260073259,2212.0,2044.0,2050.0,1224.0,448.0,-264.0,-16036.0,869.0,-340.0,-35.0,-65.0,-178.0,464.0,32865.0,5516032.0,2354.0,2816.0,0.0
3646239000,0.010266863228834468,97400.73260073259,2341.0,2042.0,2051.0,1222.0,456.0,-288.0,-16108.0,848.0,-354.0,-21.0,-65.0,-178.0,464.0,32865.0,5516032.0,2299.0,2817.0,0.0
3646495000,0.010266863228834468,97400.73260073259,2299.0,2043.0,2053.0,1223.0,444.0,-292.0,-16092.0,876.0,-344.0,-26.0,-70.0,-179.0,465.0,32865.0,5516288.0,2267.0,2816.0,0.0
3646751000,0.010266863228834468,97400.73260073259,2326.0,2042.0,2051.0,1224.0,432.0,-292.0,-16072.0,879.0,-345.0,-15.0,-72.0,-179.0,471.0,32865.0,5516288.0,2500.0,2814.0,0.0
3647007000,0.010266863228834468,97400.73260073259,2287.0,2040.0,2053.0,1223.0,428.0,-304.0,-16048.0,878.0,-354.0,-44.0,-68.0,-182.0,474.0,32865.0,5516800.0,2358.0,2816.0,0.0
3647263000,0.010266863228834468,97400.73260073259,2314.0,2043.0,2053.0,1222.0,416.0,-296.0,-16100.0,867.0,-342.0,-25.0,-68.0,-182.0,474.0,32865.0,5516800.0,2301.0,2817.0,0.0
3647519000,0.010266863228834468,97400.73260073259,2341.0,2042.0,2053.0,1223.0,424.0,-300.0,-16096.0,881.0,-342.0,-42.0,-69.0,-173.0,472.0,32865.0,5516288.0,2268.0,2816.0,0.0
3647775000,0.010266863228834468,97400.73260073259,2321.0,2041.0,2054.0,1221.0,396.0,-304.0,-16072.0,888.0,-335.0,-30.0,-68.0,-176.0,468.0,32865.0,5516288.0,2500.0,2814.0,0.0
3648031000,0.010266863228834468,97400.73260073259,2279.0,2043.0,2053.0,1220.0,416.0,-312.0,-16036.0,882.0,-375.0,-12.0,-72.0,-172.0,469.0,32865.0,5516800.0,2364.0,2817.0,0.0
3648287000,0.010266863228834468,97400.73260073259,2347.0,2043.0,2052.0,1220.0,440.0,-304.0,-16060.0,873.0,-353.0,-18.0,-80.0,-182.0,468.0,32865.0,5516800.0,2512.0,2797.0,0.0
3648543000,0.010266863228834468,97400.73260073259,2263.0,2042.0,2052.0,1222.0,404.0,-280.0,-16124.0,861.0,-335.0,-14.0,-80.0,-182.0,468.0,32865.0,5516032.0,2364.0,2816.0,0.0
3648799000,0.010266863228834468,97400.73260073259,2418.0,2042.0,2052.0,1223.0,448.0,-328.0,-16088.0,881.0,-346.0,-37.0,-68.0,-186.0,474.0,32865.0,5516032.0,2550.0,2815.0,0.0
3649055000,0.010266863228834468,97400.73260073259,2358.0,2043.0,2052.0,1224.0,432.0,-312.0,-16076.0,872.0,-356.0,-18.0,-60.0,-177.0,475.0,32865.0,5516800.0,2381.0,2816.0,0.0
3649311000,0.010266863228834468,97400.73260073259,2190.0,2042.0,2051.0,1223.0,412.0,-260.0,-16048.0,879.0,-352.0,-38.0,-61.0,-176.0,470.0,32865.0,5516800.0,2311.0,2817.0,0.0
3649567000,0.010266863228834468,97400.73260073259,2271.0,2043.0,2051.0,1222.0,460.0,-268.0,-16072.0,868.0,-337.0,-8.0,-60.0,-180.0,472.0,32865.0,5516544.0,2272.0,2816.0,0.0
3649823000,0.010266863228834468,97400.73260073259,2275.0,2042.0,2051.0,1222.0,420.0,-292.0,-16076.0,869.0,-349.0,-23.0,-60.0,-180.0,472.0,32865.0,5516544.0,2502.0,2814.0,0.0
3650079000,0.010266863228834468,97400.73260073259,2291.0,2042.0,2052.0,1222.0,436.0,-268.0,-16120.0,867.0,-344.0,-25.0,-58.0,-183.0,474.0,32865.0,5516544.0,2366.0,2817.0,0.0
3650335000,0.010266863228834468,97400.73260073259,2142.0,2042.0,2050.0,1222.0,420.0,-284.0,-16056.0,886.0,-353.0,-27.0,-59.0,-179.0,470.0,32865.0,5516544.0,2304.0,2817.0,0.0
3650591000,0.010266863228834468,97400.73260073259,2197.0,2042.0,2053.0,1224.0,440.0,-300.0,-16080.0,888.0,-354.0,-41.0,-74.0,-180.0,475.0,32865.0,5516544.0,2270.0,2816.0,0.0
3650847000,0.010266863228834468,97400.73260073259,2250.0,2042.0,2053.0,1222.0,404.0,-300.0,-16080.0,875.0,-341.0,-13.0,-65.0,-173.0,469.0,32865.0,5516544.0,2254.0,2816.0,0.0
3651103000,0.010266657306751175,97402.68620268619,2221.0,2043.0,2053.0,1222.0,428.0,-308.0,-16124.0,858.0,-353.0,-46.0,-65.0,-173.0,469.0,32865.0,5517056.0,2253.0,2817.0,0.0
3651359000,0.010266863228834468,97400.73260073259,2247.0,2042.0,2054.0,1221.0,416.0,-256.0,-16044.0,875.0,-365.0,-40.0,-64.0,-181.0,472.0,32865.0,5517056.0,2253.0,2817.0,0.0
3651615000,0.010266863228834468,97400.73260073259,2240.0,2042.0,2052.0,1223.0,416.0,-264.0,-16060.0,881.0,-364.0,-15.0,-66.0,-174.0,475.0,32865.0,5516800.0,2246.0,2816.0,0.0
3651871000,0.010266657306751175,97402.68620268619,2207.0,2042.0,2052.0,1222.0,448.0,-316.0,-16124.0,858.0,-325.0,-23.0,-68.0,-181.0,471.0,32865.0,5516800.0,2249.0,2817.0,0.0
3652127000,0.010266863228834468,97400.73260073259,2239.0,2043.0,2052.0,1226.0,424.0,-268.0,-16104.0,867.0,-356.0,-23.0,-68.0,-181.0,471.0,32865.0,5516800.0,2244.0,2816.0,0.0
3652383000,0.010266863228834468,97400.73260073259,2213.0,2043.0,2052.0,1222.0,440.0,-244.0,-16088.0,864.0,-350.0,-21.0,-67.0,-179.0,468.0,32865.0,5516800.0,2249.0,2817.0,0.0
3652639000,0.010266863228834468,97400.73260073259,2214.0,2042.0,2050.0,1223.0,396.0,-280.0,-16032.0,874.0,-359.0,-41.0,-74.0,-183.0,473.0,32865.0,5516800.0,2244.0,2816.0,0.0
3652895000,0.010266863228834468,97400.73260073259,2267.0,2042.0,2051.0,1223.0,424.0,-284.0,-16092.0,868.0,-353.0,-47.0,-70.0,-179.0,471.0,32865.0,5516800.0,2489.0,2814.0,0.0
3653151000,0.010266863228834468,97400.73260073259,2212.0,2043.0,2050.0,1221.0,468.0,-288.0,-16124.0,876.0,-346.0,-20.0,-70.0,-178.0,474.0,32865.0,5516288.0,2360.0,2817.0,0.0
3653407000,0.010266863228834468,97400.73260073259,2341.0,2042.0,2049.0,1222.0,428.0,-288.0,-16076.0,879.0,-357.0,-18.0,-70.0,-178.0,474.0,32865.0,5516288.0,2302.0,2817.0,0.0
3653663000,0.010266863228834468,97400.73260073259,2323.0,2042.0,2052.0,1223.0,424.0,-264.0,-16052.0,878.0,-337.0,-32.0,-62.0,-185.0,474.0,32865.0,5517312.0,2275.0,2817.0,0.0
3653919000,0.010266863228834468,97400.73260073259,2300.0,2043.0,2053.0,1224.0,420.0,-280.0,-16060.0,871.0,-343.0,-17.0,-68.0,-180.0,466.0,32865.0,5517312.0,2263.0,2817.0,0.0
3654175000,0.010266863228834468,97400.73260073259,2304.0,2043.0,2055.0,1222.0,444.0,-300.0,-16072.0,865.0,-351.0,-20.0,-67.0,-176.0,472.0,32865.0,5517056.0,2257.0,2817.0,0.0
3654431000,0.010266863228834468,97400.73260073259,2232.0,2042.0,2054.0,1221.0,416.0,-272.0,-16096.0,874.0,-341.0,-37.0,-63.0,-180.0,473.0,32865.0,5517056.0,2248.0,2816.0,0.0
3654687000,0.010266863228834468,97400.73260073259,2249.0,2041.0,2053.0,1225.0,420.0,-312.0,-16064.0,873.0,-354.0,-34.0,-63.0,-180.0,473.0,32865.0,5516800.0,2244.0,2816.0,0.0
3654943000,0.010266863228834468,97400.73260073259,2232.0,2042.0,2052.0,1220.0,416.0,-296.0,-16092.0,893.0,-342.0,-37.0,-66.0,-177.0,471.0,32865.0,5516800.0,2249.0,2817.0,0.0
3655199000,0.010266863228834468,97400.73260073259,2204.0,2043.0,2053.0,1219.0,408.0,-308.0,-16064.0,874.0,-363.0,-12.0,-58.0,-177.0,471.0,32865.0,5516800.0,2244.0,2816.0,0.0
3655455000,0.010266863228834468,97400.73260073259,2246.0,2042.0,2052.0,1222.0,412.0,-280.0,-16100.0,855.0,-350.0,-27.0,-67.0,-178.0,475.0,32865.0,5516800.0,2249.0,2817.0,0.0
3655711000,0.010266863228834468,97400.73260073259,2194.0,2042.0,2054.0,1222.0,416.0,-288.0,-16116.0,862.0,-353.0,-28.0,-67.0,-178.0,475.0,32865.0,5517312.0,2244.0,2816.0,0.0
3655967000,0.010266863228834468,97400.73260073259,2232.0,2042.0,2052.0,1223.0,428.0,-244.0,-16152.0,870.0,-353.0,-18.0,-73.0,-182.0,467.0,32865.0,5517312.0,2249.0,2817.0,0.0
3656223000,0.010266863228834468,97400.73260073259,2221.0,2043.0,2051.0,1224.0,404.0,-260.0,-16040.0,885.0,-349.0,-25.0,-74.0,-175.0,469.0,32865.0,5516800.0,2244.0,2816.0,0.0
3656479000,0.010266863228834468,97400.73260073259,2196.0,2043.0,2052.0,1222.0,412.0,-256.0,-16080.0,871.0,-344.0,-45.0,-67.0,-183.0,473.0,32865.0,5516800.0,2248.0,2817.0,0.0
3656735000,0.010266863228834468,97400.73260073259,2233.0,2042.0,2049.0,1221.0,444.0,-260.0,-16088.0,868.0,-343.0,-18.0,-70.0,-181.0,469.0,32865.0,5516800.0,2244.0,2816.0,0.0
3656991000,0.010266863228834468,97400.73260073259,2234.0,2041.0,2051.0,1221.0,396.0,-280.0,-16116.0,875.0,-353.0,-29.0,-70.0,-181.0,469.0,32865.0,5516800.0,2489.0,2814.0,0.0
3657247000,0.010266863228834468,97400.73260073259,2231.0,2041.0,2052.0,1223.0,416.0,-256.0,-16084.0,875.0,-348.0,-32.0,-80.0,-182.0,473.0,32865.0,5516800.0,2353.0,2816.0,0.0
3657503000,0.010266863228834468,97400.73260073259,2325.0,2042.0,2052.0,1223.0,428.0,-284.0,-16044.0,873.0,-340.0,-38.0,-66.0,-180.0,470.0,32865.0,5516800.0,2299.0,2817.0,0.0
3657759000,0.010266657306751175,97402.68620268619,2291.0,2044.0,2053.0,1222.0,408.0,-288.0,-16076.0,865.0,-355.0,-27.0,-65.0,-177.0,469.0,32865.0,5516288.0,2273.0,2817.0,0.0
3658015000,0.010266863228834468,97400.73260073259,2296.0,2043.0,2053.0,1223.0,404.0,-308.0,-16092.0,864.0,-357.0,-36.0,-91.0,-183.0,470.0,32865.0,5516288.0,2471.0,2798.0,0.0
3658271000,0.010266863228834468,97400.73260073259,2224.0,2042.0,2053.0,1221.0,432.0,-292.0,-16120.0,886.0,-357.0,-40.0,-91.0,-183.0,470.0,32865.0,5516800.0,2352.0,2817.0,0.0
3658527000,0.010266863228834468,97400.73260073259,2309.0,2042.0,2052.0,1222.0,396.0,-280.0,-16060.0,865.0,-350.0,-21.0,-60.0,-181.0,467.0,32865.0,5516800.0,2298.0,2817.0,0.0
3658783000,0.010266863228834468,97400.73260073259,2296.0,2042.0,2053.0,1219.0,384.0,-300.0,-16040.0,885.0,-347.0,-31.0,-64.0,-177.0,465.0,32865.0,5516800.0,2475.0,2796.0,0.0
3659039000,0.010266863228834468,97400.73260073259,2220.0,2042.0,2053.0,1220.0,412.0,-316.0,-16116.0,881.0,-346.0,-29.0,-66.0,-172.0,471.0,32865.0,5516800.0,2354.0,2817.0,0.0
3659295000,0.010266863228834468,97400.73260073259,2386.0,2041.0,2051.0,1220.0,432.0,-232.0,-16112.0,867.0,-340.0,-30.0,-57.0,-180.0,473.0,32865.0,5516544.0,2546.0,2815.0,0.0
3659551000,0.010266863228834468,97400.73260073259,2348.0,2041.0,2052.0,1223.0,416.0,-280.0,-16048.0,869.0,-366.0,-17.0,-57.0,-180.0,473.0,32865.0,5516544.0,2386.0,2817.0,0.0
3659807000,0.010266863228834468,97400.73260073259,2179.0,2044.0,2052.0,1223.0,452.0,-280.0,-16080.0,869.0,-366.0,-17.0,-69.0,-178.0,470.0,32865.0,5516800.0,2307.0,2816.0,0.0
3660063000,0.010266863228834468,97400.73260073259,2320.0,2042.0,2050.0,1223.0,408.0,-300.0,-16072.0,875.0,-341.0,-17.0,-68.0,-181.0,472.0,32865.0,5516800.0,2524.0,2815.0,0.0
3660319000,0.010266863228834468,97400.73260073259,2317.0,2042.0,2050.0,1223.0,416.0,-240.0,-16100.0,871.0,-364.0,-20.0,-71.0,-178.0,466.0,32865.0,5517312.0,2624.0,2815.0,0.0
3660575000,0.010266863228834468,97400.73260073259,2375.0,2041.0,2050.0,1221.0,400.0,-260.0,-16104.0,870.0,-346.0,-27.0,-71.0,-178.0,466.0,32865.0,5517312.0,2624.0,2796.0,0.0
3660831000,0.010266863228834468,97400.73260073259,2397.0,2043.0,2051.0,1220.0,392.0,-276.0,-16096.0,885.0,-332.0,-19.0,-66.0,-178.0,470.0,32865.0,5516544.0,2416.0,2816.0,0.0
3661087000,0.010266863228834468,97400.73260073259,2283.0,2041.0,2051.0,1221.0,412.0,-236.0,-16084.0,872.0,-351.0,-37.0,-75.0,-177.0,469.0,32865.0,5516544.0,2575.0,2815.0,0.0
3661343000,0.010266863228834468,97400.73260073259,2361.0,2041.0,2052.0,1223.0,412.0,-284.0,-16064.0,856.0,-358.0,-45.0,-66.0,-175.0,466.0,32865.0,5516800.0,2399.0,2817.0,0.0
3661599000,0.010266863228834468,97400.73260073259,2191.0,2041.0,2052.0,1223.0,400.0,-268.0,-16084.0,868.0,-344.0,-51.0,-66.0,-173.0,468.0,32865.0,5516800.0,2319.0,2817.0,0.0
3661855000,0.010266863228834468,97400.73260073259,2266.0,2042.0,2051.0,1221.0,412.0,-316.0,-16080.0,880.0,-358.0,-19.0,-66.0,-173.0,468.0,32865.0,5517056.0,2276.0,2816.0,0.0
3662111000,0.010266863228834468,97400.73260073259,2332.0,2042.0,2054.0,1221.0,420.0,-284.0,-16100.0,872.0,-355.0,-32.0,-68.0,-176.0,466.0,32865.0,5517056.0,2511.0,2815.0,0.0
3662367000,0.010266657306751175,97402.68620268619,2274.0,2042.0,2053.0,1223.0,420.0,-308.0,-16068.0,874.0,-348.0,-15.0,-63.0,-176.0,472.0,32865.0,5516544.0,2370.0,2817.0,0.0
3662623000,0.010266863228834468,97400.73260073259,2179.0,2042.0,2052.0,1222.0,420.0,-304.0,-16056.0,874.0,-356.0,-44.0,-61.0,-176.0,474.0,32865.0,5516544.0,2306.0,2817.0,0.0
3662879000,0.010266863228834468,97400.73260073259,2272.0,2043.0,2052.0,1223.0,392.0,-264.0,-16128.0,869.0,-342.0,-29.0,-64.0,-178.0,469.0,32865.0,5516032.0,2523.0,2815.0,0.0
3663135000,0.010266863228834468,97400.73260073259,2277.0,2042.0,2054.0,1224.0,400.0,-276.0,-16072.0,877.0,-345.0,-18.0,-64.0,-178.0,469.0,32865.0,5516032.0,2369.0,2816.0,0.0
3663391000,0.010266863228834468,97400.73260073259,2355.0,2043.0,2052.0,1223.0,412.0,-252.0,-16076.0,882.0,-351.0,-21.0,-52.0,-176.0,470.0,32865.0,5516032.0,2299.0,2816.0,0.0
3663647000,0.010266863228834468,97400.73260073259,2307.0,2043.0,2051.0,1222.0,396.0,-300.0,-16072.0,863.0,-347.0,-47.0,-68.0,-177.0,469.0,32865.0,5516032.0,2274.0,2817.0,0.0
3663903000,0.010266863228834468,97400.73260073259,2315.0,2041.0,2051.0,1221.0,448.0,-272.0,-16096.0,871.0,-344.0,-45.0,-68.0,-179.0,465.0,32865.0,5516800.0,2256.0,2816.0,0.0
3664159000,0.010266863228834468,97400.73260073259,2299.0,2042.0,2052.0,1220.0,388.0,-260.0,-16080.0,863.0,-349.0,-22.0,-62.0,-175.0,469.0,32865.0,5516800.0,2494.0,2814.0,0.0
3664415000,0.010266863228834468,97400.73260073259,2269.0,2042.0,2051.0,1224.0,408.0,-228.0,-16096.0,874.0,-348.0,-24.0,-62.0,-175.0,469.0,32865.0,5516544.0,2363.0,2817.0,0.0
3664671000,0.010266863228834468,97400.73260073259,2348.0,2043.0,2052.0,1221.0,408.0,-268.0,-16028.0,866.0,-352.0,-22.0,-64.0,-177.0,474.0,32865.0,5516544.0,2511.0,2797.0,0.0
3664927000,0.010266863228834468,97400.73260073259,2269.0,2041.0,2053.0,1223.0,388.0,-248.0,-16056.0,879.0,-336.0,-36.0,-76.0,-178.0,467.0,32865.0,5517056.0,2363.0,2816.0,0.0
3665183000,0.010266863228834468,97400.73260073259,2362.0,2042.0,2052.0,1221.0,424.0,-308.0,-16088.0,872.0,-351.0,-42.0,-67.0,-183.0,468.0,32865.0,5517056.0,2297.0,2816.0,0.0
3665439000,0.010266863228834468,97400.73260073259,2330.0,2041.0,2052.0,1220.0,412.0,-304.0,-16132.0,871.0,-340.0,-11.0,-67.0,-183.0,468.0,32865.0,5516800.0,2273.0,2817.0,0.0
3665695000,0.010266657306751175,97402.68620268619,2300.0,2043.0,2052.0,1223.0,420.0,-268.0,-16080.0,860.0,-353.0,-21.0,-68.0,-183.0,471.0,32865.0,5516800.0,2263.0,2818.0,0.0
3665951000,0.010266863228834468,97400.73260073259,2303.0,2042.0,2051.0,1221.0,408.0,-4.0,-16040.0,891.0,-355.0,-37.0,-71.0,-177.0,471.0,32865.0,5516800.0,2251.0,2816.0,0.0
3666207000,0.010266863228834468,97400.73260073259,2287.0,2043.0,2051.0,1223.0,404.0,-312.0,-16072.0,870.0,-337.0,-4.0,-82.0,-181.0,467.0,32865.0,5516800.0,2498.0,2815.0,0.0
3666463000,0.010266863228834468,97400.73260073259,2276.0,2042.0,2053.0,1222.0,432.0,-264.0,-16092.0,877.0,-351.0,-20.0,-70.0,-173.0,465.0,32865.0,5516544.0,2357.0,2816.0,0.0
3666719000,0.010266863228834468,97400.73260073259,2335.0,2042.0,2052.0,1221.0,404.0,-268.0,-16124.0,872.0,-334.0,-25.0,-70.0,-173.0,465.0,32865.0,5516544.0,2300.0,2817.0,0.0
3666975000,0.010266657306751175,97402.68620268619,2299.0,2042.0,2052.0,1222.0,424.0,-296.0,-16120.0,865.0,-346.0,-24.0,-68.0,-184.0,466.0,32865.0,5516800.0,2267.0,2816.0,0.0
3667231000,0.010266863228834468,97400.73260073259,2320.0,2042.0,2051.0,1222.0,380.0,-272.0,-16084.0,868.0,-338.0,-30.0,-67.0,-180.0,471.0,32865.0,5516800.0,2259.0,2817.0,0.0
3667487000,0.010266863228834468,97400.73260073259,2251.0,2043.0,2050.0,1224.0,400.0,-276.0,-16052.0,869.0,-359.0,-17.0,-66.0,-178.0,465.0,32865.0,5516544.0,2249.0,2816.0,0.0
3667743000,0.010266863228834468,97400.73260073259,2241.0,2044.0,2051.0,1222.0,436.0,-260.0,-16064.0,876.0,-339.0,-41.0,-67.0,-178.0,469.0,32865.0,5516544.0,2244.0,2816.0,0.0
3667999000,0.010266863228834468,97400.73260073259,2232.0,2042.0,2051.0,1223.0,404.0,-264.0,-16072.0,879.0,-338.0,-27.0,-67.0,-178.0,469.0,32865.0,5516544.0,2242.0,2816.0,0.0
3668255000,0.010266863228834468,97400.73260073259,2170.0,2043.0,2052.0,1224.0,440.0,-288.0,-16132.0,853.0,-352.0,-14.0,-65.0,-174.0,471.0,32865.0,5516544.0,2458.0,2800.0,0.0
3668511000,0.010266863228834468,97400.73260073259,2204.0,2042.0,2052.0,1222.0,440.0,-288.0,-16072.0,876.0,-350.0,-6.0,-62.0,-174.0,472.0,32865.0,5516288.0,2346.0,2817.0,0.0
3668767000,0.010266863228834468,97400.73260073259,2273.0,2041.0,2053.0,1223.0,412.0,-292.0,-16048.0,868.0,-352.0,-31.0,-62.0,-182.0,469.0,32865.0,5516288.0,2295.0,2817.0,0.0
3669023000,0.010266657306751175,97402.68620268619,2282.0,2043.0,2053.0,1220.0,440.0,-332.0,-16056.0,855.0,-349.0,-14.0,-62.0,-182.0,469.0,32865.0,5516800.0,2265.0,2816.0,0.0
3669279000,0.010266863228834468,97400.73260073259,2277.0,2042.0,2052.0,1223.0,472.0,-268.0,-16132.0,869.0,-345.0,-32.0,-64.0,-175.0,475.0,32865.0,5516800.0,2252.0,2816.0,0.0
3669535000,0.010266863228834468,97400.73260073259,2217.0,2043.0,2053.0,1224.0,476.0,-312.0,-16108.0,862.0,-353.0,-7.0,-68.0,-175.0,468.0,32865.0,5516800.0,2245.0,2816.0,0.0
3669791000,0.010266863228834468,97400.73260073259,2256.0,2042.0,2050.0,1224.0,432.0,-300.0,-16056.0,865.0,-349.0,-34.0,-73.0,-181.0,466.0,32865.0,5516800.0,2249.0,2817.0,0.0
3670047000,0.010266863228834468,97400.73260073259,2279.0,2042.0,2052.0,1222.0,444.0,-288.0,-16056.0,871.0,-360.0,-5.0,-68.0,-176.0,474.0,32865.0,5516544.0,2498.0,2815.0,0.0
3670303000,0.010266657306751175,97402.68620268619,2298.0,2041.0,2051.0,1221.0,444.0,-276.0,-16092.0,866.0,-339.0,-25.0,-68.0,-176.0,474.0,32865.0,5516544.0,2611.0,2815.0,0.0
3670559000,0.010266863228834468,97400.73260073259,2386.0,2042.0,2052.0,1223.0,464.0,-296.0,-16096.0,865.0,-336.0,-41.0,-70.0,-177.0,468.0,32865.0,5517056.0,2416.0,2817.0,0.0
3670815000,0.010266863228834468,97400.73260073259,2218.0,2041.0,2051.0,1223.0,408.0,-288.0,-16032.0,879.0,-347.0,-12.0,-62.0,-175.0,465.0,32865.0,5517056.0,2327.0,2817.0,0.0
3671071000,0.010266863228834468,97400.73260073259,2301.0,2041.0,2052.0,1222.0,428.0,-300.0,-16076.0,872.0,-351.0,-44.0,-67.0,-180.0,471.0,32865.0,5517056.0,2280.0,2816.0,0.0
3671327000,0.010266657306751175,97402.68620268619,2273.0,2042.0,2053.0,1224.0,452.0,-268.0,-16100.0,892.0,-340.0,-32.0,-72.0,-173.0,468.0,32865.0,5517056.0,2258.0,2816.0,0.0
3671583000,0.010266657306751175,97402.68620268619,2232.0,2042.0,2052.0,1223.0,412.0,-320.0,-16128.0,859.0,-340.0,-19.0,-72.0,-173.0,468.0,32865.0,5516544.0,2248.0,2816.0,0.0
3671839000,0.010266863228834468,97400.73260073259,2270.0,2043.0,2051.0,1222.0,452.0,-308.0,-16036.0,881.0,-352.0,-37.0,-76.0,-180.0,468.0,32865.0,5516544.0,2251.0,2817.0,0.0
3672095000,0.010266863228834468,97400.73260073259,2214.0,2042.0,2050.0,1222.0,396.0,-284.0,-16036.0,854.0,-360.0,-41.0,-60.0,-175.0,473.0,32865.0,5517056.0,2245.0,2816.0,0.0
3672351000,0.010266863228834468,97400.73260073259,2226.0,2043.0,2054.0,1222.0,424.0,-260.0,-16072.0,872.0,-356.0,-41.0,-57.0,-180.0,472.0,32865.0,5517056.0,2242.0,2816.0,0.0
3672607000,0.010266863228834468,97400.73260073259,2216.0,2043.0,2050.0,1221.0,424.0,-308.0,-16104.0,878.0,-352.0,-32.0,-64.0,-175.0,470.0,32865.0,5516800.0,2241.0,2816.0,0.0
3672863000,0.010266863228834468,97400.73260073259,2196.0,2043.0,2051.0,1220.0,516.0,-268.0,-16064.0,858.0,-335.0,-39.0,-64.0,-175.0,470.0,32865.0,5516800.0,2247.0,2817.0,0.0
3673119000,0.010266863228834468,97400.73260073259,2239.0,2043.0,2052.0,1220.0,472.0,-292.0,-16096.0,862.0,-335.0,-35.0,-64.0,-181.0,471.0,32865.0,5516800.0,2243.0,2816.0,0.0
3673375000,0.010266863228834468,97400.73260073259,2255.0,2043.0,2051.0,1222.0,436.0,-268.0,-16072.0,880.0,-338.0,-26.0,-66.0,-179.0,473.0,32865.0,5516800.0,2495.0,2815.0,0.0
3673631000,0.010266657306751175,97402.68620268619,2244.0,2043.0,2051.0,1221.0,476.0,-284.0,-16080.0,874.0,-367.0,-38.0,-60.0,-180.0,471.0,32865.0,5516288.0,2355.0,2816.0,0.0
3673887000,0.010266863228834468,97400.73260073259,2321.0,2043.0,2053.0,1222.0,428.0,-296.0,-16120.0,879.0,-346.0,-10.0,-60.0,-180.0,471.0,32865.0,5516288.0,2293.0,2816.0,0.0
3674143000,0.010266863228834468,97400.73260073259,2271.0,2042.0,2052.0,1221.0,404.0,-244.0,-16128.0,889.0,-357.0,-23.0,-71.0,-184.0,469.0,32865.0,5516800.0,2264.0,2816.0,0.0
3674399000,0.010266863228834468,97400.73260073259,2303.0,2042.0,2052.0,1221.0,440.0,-312.0,-16068.0,873.0,-347.0,-27.0,-67.0,-182.0,471.0,32865.0,5516800.0,2258.0,2817.0,0.0
3674655000,0.010266863228834468,97400.73260073259,2245.0,2043.0,2054.0,1223.0,412.0,-264.0,-16036.0,885.0,-339.0,-32.0,-70.0,-182.0,472.0,32875.0,5516800.0,2248.0,2816.0,0.0
3674911000,0.010266863228834468,97400.73260073259,2223.0,2041.0,2053.0,1224.0,436.0,-320.0,-16092.0,872.0,-352.0,-33.0,-70.0,-180.0,473.0,32875.0,5516800.0,2244.0,2816.0,0.0
3675167000,0.010266863228834468,97400.73260073259,2232.0,2043.0,2052.0,1223.0,440.0,-264.0,-16080.0,874.0,-359.0,-24.0,-70.0,-180.0,473.0,32875.0,5517056.0,2242.0,2816.0,0.0
3675423000,0.010266863228834468,97400.73260073259,2195.0,2042.0,2051.0,1223.0,476.0,-280.0,-16048.0,864.0,-360.0,-35.0,-71.0,-174.0,472.0,32875.0,5517056.0,2248.0,2817.0,0.0
3675679000,0.010266863228834468,97400.73260073259,2235.0,2042.0,2053.0,1223.0,440.0,-280.0,-16084.0,875.0,-357.0,-39.0,-72.0,-188.0,469.0,32875.0,5516544.0,2243.0,2816.0,0.0
3675935000,0.010266863228834468,97400.73260073259,2221.0,2041.0,2052.0,1220.0,432.0,-284.0,-16080.0,882.0,-348.0,-32.0,-71.0,-179.0,468.0,32875.0,5516544.0,2249.0,2817.0,0.0
3676191000,0.010266863228834468,97400.73260073259,2258.0,2041.0,2051.0,1223.0,480.0,-296.0,-16128.0,876.0,-320.0,-22.0,-72.0,-181.0,474.0,32875.0,5516544.0,2497.0,2815.0,0.0
3676447000,0.010266863228834468,97400.73260073259,2325.0,2042.0,2053.0,1222.0,436.0,-264.0,-16076.0,862.0,-342.0,-19.0,-72.0,-181.0,474.0,32875.0,5516544.0,2611.0,2815.0,0.0
3676703000,0.010266863228834468,97400.73260073259,2335.0,2042.0,2051.0,1225.0,444.0,-288.0,-16064.0,862.0,-342.0,-19.0,-65.0,-174.0,477.0,32875.0,5516544.0,2409.0,2816.0,0.0
3676959000,0.010266863228834468,97400.73260073259,2236.0,2043.0,2051.0,1222.0,440.0,-276.0,-16044.0,868.0,-358.0,-22.0,-62.0,-182.0,473.0,32875.0,5516544.0,2324.0,2817.0,0.0
3677215000,0.010266863228834468,97400.73260073259,2264.0,2042.0,2050.0,1221.0,408.0,-260.0,-16096.0,870.0,-344.0,-21.0,-63.0,-178.0,470.0,32875.0,5516800.0,2272.0,2816.0,0.0
3677471000,0.010266657306751175,97402.68620268619,2290.0,2042.0,2051.0,1223.0,444.0,-276.0,-16040.0,869.0,-351.0,-44.0,-63.0,-178.0,470.0,32875.0,5516800.0,2508.0,2815.0,0.0
3677727000,0.010266863228834468,97400.73260073259,2312.0,2044.0,2052.0,1225.0,444.0,-304.0,-16028.0,872.0,-354.0,-14.0,-67.0,-176.0,472.0,32875.0,5517056.0,2369.0,2817.0,0.0
3677983000,0.010266863228834468,97400.73260073259,2322.0,2044.0,2052.0,1223.0,436.0,-260.0,-16040.0,869.0,-323.0,-30.0,-60.0,-181.0,470.0,32875.0,5517056.0,2514.0,2797.0,0.0
3678239000,0.010266863228834468,97400.73260073259,2317.0,2041.0,2053.0,1221.0,468.0,-300.0,-16072.0,876.0,-340.0,-31.0,-70.0,-184.0,469.0,32875.0,5517056.0,2371.0,2817.0,0.0
3678495000,0.010266863228834468,97400.73260073259,2365.0,2041.0,2051.0,1224.0,448.0,-268.0,-16120.0,869.0,-331.0,-26.0,-63.0,-172.0,468.0,32875.0,5517056.0,2300.0,2816.0,0.0
3678751000,0.010266657306751175,97402.68620268619,2306.0,2042.0,2051.0,1222.0,428.0,-292.0,-16100.0,895.0,-360.0,-44.0,-63.0,-172.0,468.0,32875.0,5516288.0,2267.0,2816.0,0.0
3679007000,0.010266863228834468,97400.73260073259,2324.0,2041.0,2050.0,1223.0,440.0,-312.0,-16044.0,885.0,-347.0,-21.0,-70.0,-176.0,473.0,32875.0,5516288.0,2260.0,2817.0,0.0
3679263000,0.010266863228834468,97400.73260073259,2258.0,2043.0,2053.0,1223.0,436.0,-276.0,-16044.0,869.0,-347.0,-14.0,-69.0,-181.0,471.0,32875.0,5516800.0,2249.0,2816.0,0.0
3679519000,0.010266863228834468,97400.73260073259,2300.0,2042.0,2050.0,1222.0,460.0,-296.0,-16080.0,887.0,-360.0,-27.0,-76.0,-177.0,477.0,32875.0,5516800.0,2498.0,2815.0,0.0
3679775000,0.010266863228834468,97400.73260073259,2273.0,2042.0,2052.0,1221.0,472.0,-292.0,-16084.0,849.0,-357.0,-39.0,-73.0,-178.0,472.0,32875.0,5517056.0,2357.0,2816.0,0.0
3680031000,0.010266657306751175,97402.68620268619,2302.0,2042.0,2052.0,1221.0,460.0,-296.0,-16088.0,875.0,-363.0,-36.0,-73.0,-178.0,472.0,32875.0,5517056.0,2300.0,2817.0,0.0
3680287000,0.010266863228834468,97400.73260073259,2333.0,2041.0,2053.0,1223.0,452.0,-316.0,-16036.0,857.0,-332.0,-33.0,-70.0,-183.0,470.0,32875.0,5517056.0,2268.0,2816.0,0.0
3680543000,0.010266863228834468,97400.73260073259,2279.0,2041.0,2053.0,1223.0,428.0,-252.0,-16044.0,877.0,-348.0,-36.0,-65.0,-176.0,470.0,32875.0,5517056.0,2253.0,2816.0,0.0
3680799000,0.010266863228834468,97400.73260073259,2256.0,2043.0,2054.0,1224.0,440.0,-296.0,-16068.0,869.0,-342.0,-23.0,-62.0,-177.0,476.0,32875.0,5517056.0,2253.0,2817.0,0.0
3681055000,0.010266863228834468,97400.73260073259,2260.0,2042.0,2052.0,1222.0,436.0,-268.0,-16088.0,886.0,-359.0,-18.0,-84.0,-183.0,473.0,32875.0,5517056.0,2246.0,2816.0,0.0
3681311000,0.010266863228834468,97400.73260073259,2201.0,2041.0,2053.0,1222.0,416.0,-296.0,-16060.0,877.0,-337.0,-36.0,-84.0,-183.0,473.0,32875.0,5516800.0,2242.0,2816.0,0.0
3681567000,0.010266863228834468,97400.73260073259,2291.0,2042.0,2053.0,1221.0,488.0,-296.0,-16076.0,867.0,-350.0,-27.0,-69.0,-179.0,468.0,32875.0,5516800.0,2495.0,2815.0,0.0
3681823000,0.010266863228834468,97400.73260073259,2254.0,2042.0,2053.0,1223.0,468.0,-284.0,-16104.0,856.0,-354.0,-49.0,-63.0,-177.0,471.0,32875.0,5517056.0,2362.0,2817.0,0.0
3682079000,0.010266657306751175,97402.68620268619,2303.0,2042.0,2053.0,1224.0,404.0,-304.0,-16048.0,871.0,-341.0,-45.0,-63.0,-181.0,479.0,32875.0,5517056.0,2296.0,2816.0,0.0
3682335000,0.010266863228834468,97400.73260073259,2326.0,2042.0,2052.0,1221.0,448.0,-272.0,-16148.0,889.0,-329.0,-24.0,-63.0,-181.0,479.0,32875.0,5516800.0,2266.0,2816.0,0.0
3682591000,0.010266863228834468,97400.73260073259,2255.0,2041.0,2052.0,1222.0,428.0,-264.0,-16096.0,880.0,-367.0,-20.0,-59.0,-176.0,466.0,32875.0,5516800.0,2252.0,2816.0,0.0
3682847000,0.010266863228834468,97400.73260073259,2259.0,2042.0,2052.0,1224.0,440.0,-260.0,-16060.0,881.0,-358.0,-14.0,-63.0,-182.0,471.0,32875.0,5516800.0,2246.0,2816.0,0.0
3683103000,0.010266863228834468,97400.73260073259,2247.0,2041.0,2052.0,1223.0,424.0,-268.0,-16072.0,870.0,-358.0,-29.0,-63.0,-178.0,472.0,32875.0,5516800.0,2249.0,2817.0,0.0
3683359000,0.010266863228834468,97400.73260073259,2262.0,2044.0,2054.0,1223.0,444.0,-316.0,-16044.0,864.0,-344.0,-37.0,-66.0,-183.0,476.0,32875.0,5517056.0,2498.0,2815.0,0.0
3683615000,0.010266863228834468,97400.73260073259,2283.0,2044.0,2054.0,1223.0,448.0,-288.0,-16056.0,876.0,-346.0,-26.0,-66.0,-183.0,476.0,32875.0,5517056.0,2364.0,2817.0,0.0
3683871000,0.010266657306751175,97402.68620268619,2325.0,2042.0,2052.0,1223.0,464.0,-304.0,-16056.0,894.0,-351.0,-39.0,-70.0,-182.0,470.0,32875.0,5516544.0,2303.0,2817.0,0.0
3684127000,0.010266863228834468,97400.73260073259,2335.0,2043.0,2052.0,1224.0,416.0,-328.0,-16056.0,848.0,-353.0,-34.0,-71.0,-177.0,468.0,32875.0,5516544.0,2276.0,2817.0,0.0
3684383000,0.010266863228834468,97400.73260073259,2304.0,2043.0,2054.0,1222.0,452.0,-276.0,-16044.0,865.0,-365.0,-36.0,-72.0,-179.0,469.0,32875.0,5516800.0,2256.0,2816.0,0.0
3684639000,0.010266657306751175,97402.68620268619,2234.0,2044.0,2050.0,1224.0,432.0,-292.0,-16108.0,883.0,-365.0,-28.0,-69.0,-180.0,466.0,32875.0,5516800.0,2248.0,2816.0,0.0
3684895000,0.010266863228834468,97400.73260073259,2269.0,2041.0,2051.0,1223.0,488.0,-304.0,-16072.0,880.0,-344.0,-25.0,-69.0,-180.0,466.0,32875.0,5516544.0,2250.0,2817.0,0.0
3685151000,0.010266863228834468,97400.73260073259,2238.0,2042.0,2053.0,1223.0,440.0,-280.0,-16072.0,891.0,-336.0,-19.0,-67.0,-174.0,471.0,32875.0,5516544.0,2251.0,2817.0,0.0
3685407000,0.010266863228834468,97400.73260073259,2228.0,2043.0,2051.0,1223.0,480.0,-316.0,-16044.0,873.0,-328.0,-16.0,-72.0,-179.0,472.0,32875.0,5516800.0,2245.0,2816.0,0.0
3685663000,0.010266863228834468,97400.73260073259,2288.0,2043.0,2051.0,1223.0,444.0,-280.0,-16072.0,884.0,-358.0,-35.0,-64.0,-180.0,474.0,32875.0,5516800.0,2496.0,2815.0,0.0
3685919000,0.010266657306751175,97402.68620268619,2235.0,2042.0,2050.0,1223.0,456.0,-232.0,-16096.0,874.0,-358.0,-9.0,-64.0,-183.0,475.0,32875.0,5516800.0,2363.0,2817.0,0.0
3686175000,0.010266863228834468,97400.73260073259,2359.0,2043.0,2052.0,1223.0,444.0,-328.0,-16068.0,863.0,-347.0,-22.0,-64.0,-183.0,475.0,32875.0,5516800.0,2303.0,2817.0,0.0
3686431000,0.010266863228834468,97400.73260073259,2321.0,2042.0,2053.0,1222.0,452.0,-280.0,-16056.0,878.0,-329.0,-17.0,-66.0,-177.0,468.0,32875.0,5516800.0,2269.0,2816.0,0.0
3686687000,0.010266863228834468,97400.73260073259,2284.0,2041.0,2052.0,1222.0,460.0,-264.0,-16044.0,865.0,-344.0,-33.0,-64.0,-173.0,466.0,32875.0,5516800.0,2260.0,2817.0,0.0
3686943000,0.010266863228834468,97400.73260073259,2286.0,2042.0,2051.0,1222.0,436.0,-320.0,-16044.0,865.0,-343.0,-43.0,-61.0,-181.0,466.0,32875.0,5516544.0,2249.0,2816.0,0.0
3687199000,0.010266657306751175,97402.68620268619,2214.0,2042.0,2053.0,1221.0,432.0,-300.0,-16060.0,861.0,-336.0,-35.0,-61.0,-181.0,466.0,32875.0,5516544.0,2244.0,2816.0,0.0
3687455000,0.010266863228834468,97400.73260073259,2237.0,2043.0,2054.0,1221.0,448.0,-304.0,-16088.0,859.0,-356.0,-44.0,-63.0,-170.0,470.0,32875.0,5516544.0,2242.0,2816.0,0.0
3687711000,0.010266863228834468,97400.73260073259,2213.0,2042.0,2053.0,1224.0,436.0,-300.0,-15996.0,860.0,-335.0,-14.0,-58.0,-170.0,466.0,32875.0,5516544.0,2241.0,2816.0,0.0
3687967000,0.010266863228834468,97400.73260073259,2198.0,2043.0,2051.0,1222.0,416.0,-260.0,-16036.0,883.0,-337.0,-29.0,-68.0,-177.0,469.0,32875.0,5517312.0,2248.0,2817.0,0.0
3688223000,0.010266863228834468,97400.73260073259,2235.0,2043.0,2050.0,1222.0,424.0,-304.0,-16064.0,874.0,-349.0,-26.0,-71.0,-179.0,477.0,32875.0,5517312.0,2243.0,2816.0,0.0
3688479000,0.010266657306751175,97402.68620268619,2248.0,2043.0,2052.0,1222.0,480.0,-300.0,-16100.0,875.0,-339.0,-25.0,-71.0,-179.0,477.0,32875.0,5516800.0,2495.0,2815.0,0.0
3688735000,0.010266863228834468,97400.73260073259,2245.0,2042.0,2051.0,1220.0,444.0,-280.0,-16068.0,877.0,-347.0,-4.0,-72.0,-176.0,471.0,32875.0,5516800.0,2356.0,2816.0,0.0
3688991000,0.010266863228834468,97400.73260073259,2325.0,2042.0,2052.0,1222.0,444.0,-264.0,-16032.0,866.0,-357.0,-26.0,-63.0,-178.0,472.0,32875.0,5517056.0,2300.0,2817.0,0.0
3689247000,0.010266657306751175,97402.68620268619,2295.0,2042.0,2052.0,1221.0,448.0,-252.0,-16040.0,856.0,-361.0,-29.0,-68.0,-182.0,469.0,32875.0,5517056.0,2274.0,2817.0,0.0
3689503000,0.010266863228834468,97400.73260073259,2367.0,2041.0,2052.0,1221.0,416.0,-300.0,-16076.0,884.0,-345.0,-18.0,-69.0,-185.0,471.0,32875.0,5517056.0,2509.0,2815.0,0.0
3689759000,0.010266863228834468,97400.73260073259,2297.0,2043.0,2051.0,1222.0,452.0,-344.0,-16104.0,875.0,-350.0,-38.0,-69.0,-185.0,471.0,32875.0,5517056.0,2369.0,2817.0,0.0
3690015000,0.010266863228834468,97400.73260073259,2164.0,2042.0,2052.0,1220.0,452.0,-284.0,-16096.0,881.0,-342.0,-33.0,-68.0,-182.0,469.0,32875.0,5516544.0,2305.0,2817.0,0.0
3690271000,0.010266863228834468,97400.73260073259,2249.0,2041.0,2052.0,1219.0,444.0,-276.0,-16092.0,888.0,-350.0,-45.0,-66.0,-180.0,463.0,32875.0,5516544.0,2276.0,2817.0,0.0
3690527000,0.010266863228834468,97400.73260073259,2222.0,2042.0,2053.0,1221.0,452.0,-284.0,-16044.0,888.0,-349.0,-23.0,-61.0,-176.0,470.0,32875.0,5517312.0,2257.0,2816.0,0.0
3690783000,0.010266863228834468,97400.73260073259,2254.0,2043.0,2053.0,1223.0,456.0,-304.0,-16120.0,876.0,-352.0,-21.0,-61.0,-176.0,470.0,32875.0,5517312.0,2248.0,2816.0,0.0
3691039000,0.010266863228834468,97400.73260073259,2229.0,2043.0,2051.0,1223.0,440.0,-324.0,-16104.0,880.0,-362.0,-19.0,-62.0,-175.0,469.0,32875.0,5516800.0,2250.0,2817.0,0.0
3691295000,0.010266863228834468,97400.73260073259,2226.0,2044.0,2053.0,1221.0,460.0,-304.0,-16064.0,874.0,-348.0,-21.0,-64.0,-179.0,468.0,32875.0,5516800.0,2252.0,2817.0,0.0
3691551000,0.010266863228834468,97400.73260073259,2242.0,2044.0,2053.0,1220.0,452.0,-296.0,-16056.0,873.0,-344.0,-31.0,-66.0,-177.0,474.0,32875.0,5516800.0,2245.0,2816.0,0.0
3691807000,0.010266863228834468,97400.73260073259,2196.0,2043.0,2054.0,1222.0,456.0,-280.0,-16076.0,861.0,-378.0,-28.0,-61.0,-174.0,469.0,32875.0,5516800.0,2243.0,2816.0,0.0
3692063000,0.010266863228834468,97400.73260073259,2227.0,2043.0,2053.0,1224.0,440.0,-264.0,-16104.0,878.0,-348.0,-26.0,-61.0,-174.0,469.0,32875.0,5516800.0,2241.0,2816.0,0.0
3692319000,0.010266863228834468,97400.73260073259,2219.0,2042.0,2053.0,1225.0,472.0,-300.0,-16124.0,875.0,-340.0,-33.0,-61.0,-177.0,467.0,32875.0,5516800.0,2247.0,2817.0,0.0
3692575000,0.010266863228834468,97400.73260073259,2257.0,2042.0,2052.0,1222.0,436.0,-288.0,-16032.0,871.0,-333.0,-37.0,-69.0,-178.0,469.0,32875.0,5517056.0,2497.0,2815.0,0.0
3692831000,0.010266863228834468,97400.73260073259,2276.0,2042.0,2052.0,1223.0,448.0,-288.0,-16080.0,873.0,-359.0,-12.0,-69.0,-179.0,469.0,32875.0,5517056.0,2364.0,2817.0,0.0
3693087000,0.010266863228834468,97400.73260073259,2297.0,2043.0,2053.0,1222.0,428.0,-228.0,-16140.0,858.0,-329.0,-28.0,-65.0,-181.0,466.0,32875.0,5517056.0,2296.0,2816.0,0.0
3693343000,0.010266863228834468,97400.73260073259,2318.0,2042.0,2053.0,1222.0,420.0,-252.0,-16100.0,884.0,-364.0,-32.0,-65.0,-181.0,466.0,32875.0,5517056.0,2266.0,2816.0,0.0
3693599000,0.010266863228834468,97400.73260073259,2279.0,2044.0,2052.0,1223.0,392.0,-284.0,-16056.0,884.0,-364.0,-32.0,-73.0,-175.0,465.0,32875.0,5517056.0,2252.0,2816.0,0.0
3693855000,0.010266863228834468,97400.73260073259,2229.0,2043.0,2051.0,1223.0,412.0,-288.0,-16064.0,878.0,-343.0,-16.0,-66.0,-180.0,474.0,32875.0,5517056.0,2246.0,2816.0,0.0
3694111000,0.010266863228834468,97400.73260073259,2248.0,2042.0,2050.0,1221.0,440.0,-280.0,-16080.0,864.0,-337.0,-47.0,-64.0,-178.0,467.0,32875.0,5516288.0,2242.0,2816.0,0.0
3694367000,0.010266863228834468,97400.73260073259,2206.0,2042.0,2054.0,1221.0,420.0,-280.0,-16120.0,859.0,-358.0,-30.0,-83.0,-180.0,470.0,32875.0,5516288.0,2248.0,2817.0,0.0
3694623000,0.010266863228834468,97400.73260073259,2232.0,2043.0,2053.0,1220.0,424.0,-256.0,-16108.0,885.0,-338.0,-37.0,-83.0,-180.0,470.0,32875.0,5516800.0,2250.0,2817.0,0.0
3694879000,0.010266863228834468,97400.73260073259,2233.0,2043.0,2054.0,1222.0,416.0,-280.0,-16036.0,884.0,-349.0,-20.0,-73.0,-177.0,469.0,32875.0,5516800.0,2245.0,2816.0,0.0
3695135000,0.010266863228834468,97400.73260073259,2202.0,2041.0,2052.0,1223.0,428.0,-284.0,-16060.0,857.0,-355.0,-29.0,-62.0,-176.0,468.0,32875.0,5516800.0,2249.0,2817.0,0.0
3695391000,0.010266863228834468,97400.73260073259,2257.0,2042.0,2052.0,1222.0,424.0,-300.0,-16144.0,879.0,-358.0,-25.0,-59.0,-177.0,473.0,32875.0,5516800.0,2251.0,2817.0,0.0
3695647000,0.010266863228834468,97400.73260073259,2181.0,2043.0,2052.0,1223.0,448.0,-296.0,-16088.0,862.0,-344.0,-27.0,-59.0,-177.0,473.0,32875.0,5516544.0,2454.0,2796.0,0.0
3695903000,0.010266863228834468,97400.73260073259,2173.0,2044.0,2052.0,1222.0,404.0,-264.0,-16056.0,876.0,-354.0,-27.0,-63.0,-182.0,474.0,32875.0,5516544.0,2344.0,2817.0,0.0
3696159000,0.010266863228834468,97400.73260073259,2294.0,2043.0,2054.0,1222.0,432.0,-260.0,-16080.0,869.0,-343.0,-39.0,-62.0,-172.0,467.0,32875.0,5517312.0,2295.0,2817.0,0.0
3696415000,0.010266863228834468,97400.73260073259,2267.0,2043.0,2051.0,1223.0,464.0,-268.0,-16056.0,862.0,-346.0,-24.0,-62.0,-176.0,463.0,32875.0,5517312.0,2272.0,2817.0,0.0
3696671000,0.010266863228834468,97400.73260073259,2291.0,2041.0,2052.0,1222.0,400.0,-268.0,-16104.0,863.0,-356.0,-14.0,-58.0,-179.0,469.0,32875.0,5516800.0,2254.0,2816.0,0.0
3696927000,0.010266863228834468,97400.73260073259,2248.0,2042.0,2052.0,1222.0,436.0,-264.0,-16112.0,872.0,-356.0,-40.0,-58.0,-179.0,469.0,32875.0,5516800.0,2247.0,2816.0,0.0
3697183000,0.010266863228834468,97400.73260073259,2233.0,2043.0,2051.0,1224.0,420.0,-264.0,-16088.0,886.0,-330.0,-30.0,-69.0,-179.0,471.0,32875.0,5516544.0,2250.0,2817.0,0.0
3697439000,0.010266863228834468,97400.73260073259,2263.0,2041.0,2051.0,1222.0,408.0,-288.0,-16060.0,878.0,-369.0,-37.0,-70.0,-177.0,469.0,32875.0,5516544.0,2251.0,2817.0,0.0
3697695000,0.010266657306751175,97402.68620268619,2208.0,2042.0,2052.0,1220.0,432.0,-280.0,-16104.0,876.0,-349.0,-11.0,-65.0,-177.0,470.0,32875.0,5516800.0,2245.0,2816.0,0.0
3697951000,0.010266863228834468,97400.73260073259,2232.0,2043.0,2053.0,1221.0,416.0,-272.0,-16116.0,860.0,-342.0,-19.0,-68.0,-177.0,476.0,32875.0,5516800.0,2242.0,2816.0,0.0
3698207000,0.010266863228834468,97400.73260073259,2218.0,2042.0,2053.0,1223.0,368.0,-272.0,-16088.0,863.0,-329.0,-16.0,-68.0,-177.0,476.0,32875.0,5516800.0,2248.0,2817.0,0.0
3698463000,0.010266863228834468,97400.73260073259,2209.0,2041.0,2053.0,1224.0,384.0,-284.0,-16036.0,865.0,-344.0,-21.0,-70.0,-178.0,466.0,32875.0,5516800.0,2250.0,2817.0,0.0
3698719000,0.010266863228834468,97400.73260073259,2242.0,2041.0,2053.0,1223.0,448.0,-312.0,-16088.0,877.0,-353.0,-12.0,-68.0,-181.0,468.0,32875.0,5517312.0,2245.0,2816.0,0.0
3698975000,0.010266657306751175,97402.68620268619,2193.0,2042.0,2054.0,1221.0,416.0,-296.0,-16132.0,857.0,-329.0,-14.0,-78.0,-175.0,463.0,32875.0,5517312.0,2242.0,2816.0,0.0
3699231000,0.010266863228834468,97400.73260073259,2222.0,2041.0,2051.0,1222.0,440.0,-312.0,-16084.0,873.0,-349.0,-26.0,-78.0,-175.0,463.0,32875.0,5516800.0,2248.0,2817.0,0.0
3699487000,0.010266863228834468,97400.73260073259,2232.0,2042.0,2052.0,1223.0,384.0,-280.0,-16048.0,869.0,-358.0,-33.0,-64.0,-174.0,468.0,32875.0,5516800.0,2250.0,2817.0,0.0
3699743000,0.010266863228834468,97400.73260073259,2198.0,2043.0,2052.0,1222.0,364.0,-280.0,-16076.0,871.0,-343.0,-14.0,-66.0,-183.0,466.0,32875.0,5517312.0,2245.0,2816.0,0.0
3699999000,0.010266863228834468,97400.73260073259,2247.0,2042.0,2053.0,1221.0,388.0,-24.0,-16048.0,876.0,-337.0,-29.0,-61.0,-180.0,469.0,32875.0,5517312.0,2249.0,2817.0,0.0
3700255000,0.010266863228834468,97400.73260073259,2201.0,2042.0,2051.0,1223.0,432.0,-272.0,-16084.0,866.0,-347.0,-18.0,-87.0,-170.0,471.0,32875.0,5516800.0,2244.0,2816.0,0.0
3700511000,0.010266863228834468,97400.73260073259,2224.0,2042.0,2051.0,1222.0,424.0,-276.0,-16092.0,875.0,-368.0,-13.0,-87.0,-170.0,471.0,32875.0,5516800.0,2249.0,2817.0,0.0
3700767000,0.010266863228834468,97400.73260073259,2226.0,2042.0,2051.0,1223.0,392.0,-284.0,-16072.0,885.0,-344.0,-21.0,-62.0,-179.0,466.0,32875.0,5516800.0,2244.0,2816.0,0.0
3701023000,0.010266863228834468,97400.73260073259,2197.0,2042.0,2051.0,1222.0,424.0,-244.0,-16044.0,879.0,-329.0,-24.0,-63.0,-172.0,466.0,32875.0,5516800.0,2249.0,2817.0,0.0
3701279000,0.010266863228834468,97400.73260073259,2254.0,2041.0,2053.0,1222.0,400.0,-296.0,-16116.0,877.0,-350.0,-36.0,-60.0,-173.0,466.0,32875.0,5517312.0,2251.0,2817.0,0.0
3701535000,0.010266863228834468,97400.73260073259,2216.0,2040.0,2052.0,1222.0,396.0,-284.0,-16076.0,872.0,-350.0,-25.0,-68.0,-182.0,472.0,32875.0,5517312.0,2245.0,2816.0,0.0
3701791000,0.010266657306751175,97402.68620268619,2206.0,2042.0,2053.0,1220.0,404.0,-296.0,-16060.0,891.0,-349.0,-13.0,-68.0,-182.0,472.0,32875.0,5517312.0,2242.0,2816.0,0.0
3702047000,0.010266863228834468,97400.73260073259,2229.0,2043.0,2052.0,1222.0,412.0,-268.0,-16092.0,872.0,-348.0,-28.0,-66.0,-177.0,473.0,32875.0,5517312.0,2241.0,2816.0,0.0
3702303000,0.010266863228834468,97400.73260073259,2196.0,2042.0,2052.0,1224.0,444.0,-252.0,-16040.0,888.0,-355.0,-21.0,-67.0,-181.0,462.0,32875.0,5516800.0,2247.0,2817.0,0.0
3702559000,0.010266863228834468,97400.73260073259,2245.0,2041.0,2050.0,1225.0,400.0,-264.0,-16044.0,859.0,-364.0,-34.0,-67.0,-180.0,471.0,32875.0,5516800.0,2250.0,2817.0,0.0
3702815000,0.010266863228834468,97400.73260073259,2212.0,2040.0,2052.0,1218.0,348.0,-272.0,-16176.0,856.0,-358.0,-44.0,-71.0,-178.0,466.0,32875.0,5517312.0,2244.0,2816.0,0.0
3703071000,0.010266863228834468,97400.73260073259,2195.0,2040.0,2054.0,1221.0,364.0,-292.0,-16184.0,875.0,-340.0,-33.0,-71.0,-178.0,466.0,32875.0,5517312.0,2242.0,2816.0,0.0
3703327000,0.010266863228834468,97400.73260073259,2236.0,2042.0,2055.0,1226.0,428.0,-300.0,-16012.0,876.0,-343.0,-8.0,-67.0,-181.0,466.0,32875.0,5517056.0,2248.0,2817.0,0.0
3703583000,0.010266863228834468,97400.73260073259,2200.0,2044.0,2053.0,1224.0,460.0,-304.0,-16060.0,868.0,-346.0,-33.0,-70.0,-173.0,468.0,32875.0,5517056.0,2250.0,2817.0,0.0
3703839000,0.010266863228834468,97400.73260073259,2288.0,2042.0,2053.0,1223.0,460.0,-320.0,-16072.0,871.0,-355.0,-46.0,-72.0,-180.0,469.0,32875.0,5517056.0,2498.0,2815.0,0.0
3704095000,0.010266863228834468,97400.73260073259,2259.0,2041.0,2053.0,1221.0,396.0,-304.0,-16084.0,866.0,-353.0,-30.0,-72.0,-180.0,469.0,32875.0,5517056.0,2364.0,2817.0,0.0
3704351000,0.010266657306751175,97402.68620268619,2318.0,2042.0,2050.0,1220.0,376.0,-272.0,-16124.0,846.0,-353.0,-39.0,-64.0,-179.0,467.0,32875.0,5517312.0,2303.0,2817.0,0.0
3704607000,0.010266863228834468,97400.73260073259,2353.0,2044.0,2051.0,1220.0,416.0,-292.0,-16128.0,872.0,-347.0,-43.0,-63.0,-179.0,468.0,32875.0,5517312.0,2276.0,2817.0,0.0
3704863000,0.010266863228834468,97400.73260073259,2276.0,2043.0,2050.0,1222.0,416.0,-228.0,-16108.0,883.0,-361.0,-30.0,-66.0,-179.0,474.0,32875.0,5517056.0,2256.0,2816.0,0.0
3705119000,0.010266863228834468,97400.73260073259,2264.0,2044.0,2052.0,1226.0,416.0,-268.0,-16012.0,858.0,-347.0,-31.0,-63.0,-185.0,472.0,32875.0,5517056.0,2248.0,2816.0,0.0
3705375000,0.010266863228834468,97400.73260073259,2256.0,2043.0,2050.0,1221.0,404.0,-292.0,-16052.0,886.0,-330.0,-12.0,-63.0,-185.0,472.0,32875.0,5516800.0,2250.0,2817.0,0.0
3705631000,0.010266657306751175,97402.68620268619,2217.0,2044.0,2050.0,1221.0,452.0,-284.0,-16108.0,883.0,-352.0,-37.0,-60.0,-171.0,467.0,32875.0,5516800.0,2252.0,2817.0,0.0
3705887000,0.010266863228834468,97400.73260073259,2253.0,2041.0,2053.0,1220.0,392.0,-248.0,-16136.0,866.0,-363.0,-25.0,-66.0,-175.0,473.0,32875.0,5517056.0,2245.0,2816.0,0.0
3706143000,0.010266863228834468,97400.73260073259,2218.0,2040.0,2052.0,1221.0,372.0,-268.0,-16088.0,878.0,-344.0,-45.0,-64.0,-177.0,472.0,32875.0,5517056.0,2473.0,2805.0,0.0
3706399000,0.010266863228834468,97400.73260073259,2253.0,2043.0,2054.0,1224.0,448.0,-296.0,-16036.0,879.0,-342.0,-23.0,-78.0,-180.0,471.0,32875.0,5517312.0,2600.0,2815.0,0.0
3706655000,0.010266863228834468,97400.73260073259,2347.0,2045.0,2052.0,1230.0,484.0,-280.0,-15980.0,878.0,-356.0,-12.0,-78.0,-180.0,471.0,32875.0,5517312.0,2411.0,2817.0,0.0
3706911000,0.010266657306751175,97402.68620268619,2175.0,2041.0,2052.0,1221.0,404.0,-276.0,-16140.0,868.0,-360.0,-35.0,-78.0,-174.0,467.0,32875.0,5516800.0,2318.0,2816.0,0.0
3707167000,0.010266863228834468,97400.73260073259,2297.0,2040.0,2051.0,1221.0,356.0,-292.0,-16136.0,886.0,-351.0,-35.0,-71.0,-180.0,472.0,32875.0,5516800.0,2283.0,2817.0,0.0
3707423000,0.010266863228834468,97400.73260073259,2278.0,2042.0,2052.0,1221.0,388.0,-244.0,-16104.0,853.0,-348.0,-17.0,-71.0,-180.0,467.0,32875.0,5517312.0,2266.0,2817.0,0.0
3707679000,0.010266657306751175,97402.68620268619,2267.0,2044.0,2053.0,1218.0,452.0,-268.0,-16208.0,877.0,-335.0,-37.0,-74.0,-181.0,467.0,32875.0,5517312.0,2259.0,2817.0,0.0
3707935000,0.010266863228834468,97400.73260073259,2270.0,2043.0,2050.0,1224.0,420.0,-288.0,-16044.0,873.0,-347.0,-42.0,-74.0,-181.0,467.0,32875.0,5517312.0,2248.0,2816.0,0.0
3708191000,0.010266863228834468,97400.73260073259,2225.0,2042.0,2052.0,1227.0,412.0,-300.0,-15996.0,859.0,-344.0,-35.0,-70.0,-173.0,470.0,32875.0,5517312.0,2251.0,2817.0,0.0
3708447000,0.010266863228834468,97400.73260073259,2260.0,2044.0,2052.0,1219.0,368.0,-240.0,-16160.0,860.0,-349.0,-32.0,-66.0,-180.0,472.0,32875.0,5516800.0,2252.0,2817.0,0.0
3708703000,0.010266863228834468,97400.73260073259,2237.0,2042.0,2050.0,1220.0,376.0,-268.0,-16048.0,899.0,-345.0,-25.0,-68.0,-180.0,471.0,32875.0,5516800.0,2252.0,2817.0,0.0
3708959000,0.010266863228834468,97400.73260073259,2270.0,2041.0,2052.0,1223.0,400.0,-260.0,-16068.0,863.0,-368.0,-32.0,-68.0,-180.0,471.0,32875.0,5516800.0,2499.0,2815.0,0.0
3709215000,0.010266863228834468,97400.73260073259,2277.0,2042.0,2052.0,1220.0,436.0,-244.0,-16152.0,873.0,-358.0,-43.0,-88.0,-174.0,463.0,32875.0,5516800.0,2357.0,2816.0,0.0
3709471000,0.010266863228834468,97400.73260073259,2310.0,2041.0,2050.0,1225.0,456.0,-256.0,-16056.0,896.0,-359.0,-33.0,-59.0,-179.0,471.0,32875.0,5516800.0,2301.0,2817.0,0.0
3709727000,0.010266863228834468,97400.73260073259,2341.0,2042.0,2052.0,1223.0,436.0,-272.0,-16056.0,877.0,-359.0,-41.0,-68.0,-179.0,475.0,32875.0,5516800.0,2275.0,2817.0,0.0
3709983000,0.010266863228834468,97400.73260073259,2368.0,2041.0,2054.0,1223.0,412.0,-304.0,-16100.0,863.0,-335.0,-34.0,-64.0,-172.0,466.0,32875.0,5517312.0,2516.0,2815.0,0.0
3710239000,0.010266657306751175,97402.68620268619,2287.0,2041.0,2055.0,1223.0,444.0,-320.0,-16124.0,878.0,-351.0,-35.0,-64.0,-172.0,466.0,32875.0,5517312.0,2365.0,2816.0,0.0
3710495000,0.010266863228834468,97400.73260073259,2377.0,2040.0,2055.0,1221.0,424.0,-284.0,-16096.0,878.0,-351.0,-35.0,-63.0,-175.0,466.0,32875.0,5516800.0,2297.0,2816.0,0.0
3710751000,0.010266657306751175,97402.68620268619,2322.0,2041.0,2052.0,1222.0,440.0,-328.0,-16060.0,884.0,-356.0,-22.0,-61.0,-174.0,471.0,32875.0,5516800.0,2273.0,2817.0,0.0
3711007000,0.010266863228834468,97400.73260073259,2305.0,2042.0,2052.0,1223.0,416.0,-280.0,-16012.0,874.0,-358.0,-27.0,-76.0,-182.0,466.0,32875.0,5517056.0,2255.0,2816.0,0.0
3711263000,0.010266863228834468,97400.73260073259,2328.0,2042.0,2053.0,1223.0,440.0,-288.0,-16064.0,868.0,-349.0,-28.0,-67.0,-179.0,473.0,32875.0,5517056.0,2500.0,2815.0,0.0
3711519000,0.010266657306751175,97402.68620268619,2246.0,2043.0,2051.0,1222.0,452.0,-264.0,-16108.0,864.0,-371.0,-30.0,-67.0,-179.0,473.0,32875.0,5517568.0,2358.0,2816.0,0.0
3711775000,0.010267069159178435,97398.77899877899,2352.0,2044.0,2052.0,1223.0,420.0,-268.0,-16028.0,875.0,-358.0,-11.0,-73.0,-179.0,463.0,32875.0,5517568.0,2294.0,2816.0,0.0
3712031000,0.010266863228834468,97400.73260073259,2357.0,2042.0,2050.0,1225.0,440.0,-260.0,-16032.0,897.0,-351.0,-19.0,-68.0,-180.0,473.0,32875.0,5516544.0,2518.0,2815.0,0.0
3712287000,0.010266863228834468,97400.73260073259,2308.0,2040.0,2050.0,1221.0,448.0,-272.0,-16060.0,850.0,-341.0,-27.0,-68.0,-176.0,466.0,32875.0,5516544.0,2366.0,2816.0,0.0
3712543000,0.010266863228834468,97400.73260073259,2427.0,2041.0,2050.0,1222.0,428.0,-240.0,-16120.0,869.0,-349.0,-22.0,-68.0,-176.0,466.0,32875.0,5517056.0,2552.0,2815.0,0.0
3712799000,0.010266657306751175,97402.68620268619,2343.0,2042.0,2052.0,1223.0,424.0,-288.0,-16092.0,893.0,-350.0,-34.0,-77.0,-174.0,467.0,32875.0,5517056.0,2382.0,2816.0,0.0
3713055000,0.010266863228834468,97400.73260073259,2480.0,2043.0,2051.0,1221.0,460.0,-264.0,-16120.0,871.0,-376.0,-17.0,-70.0,-182.0,469.0,32875.0,5516800.0,2559.0,2815.0,0.0
3713311000,0.010266863228834468,97400.73260073259,2398.0,2043.0,2054.0,1222.0,472.0,-288.0,-16056.0,878.0,-353.0,-37.0,-68.0,-178.0,469.0,32875.0,5516800.0,2385.0,2816.0,0.0
3713567000,0.010266863228834468,97400.73260073259,2199.0,2041.0,2052.0,1223.0,428.0,-288.0,-16084.0,879.0,-337.0,-47.0,-68.0,-178.0,469.0,32875.0,5516800.0,2306.0,2816.0,0.0
3713823000,0.010266863228834468,97400.73260073259,2255.0,2041.0,2054.0,1222.0,400.0,-320.0,-16052.0,870.0,-353.0,-15.0,-68.0,-178.0,469.0,32875.0,5516800.0,2479.0,2796.0,0.0
3714079000,0.010266863228834468,97400.73260073259,2183.0,2043.0,2054.0,1224.0,456.0,-320.0,-16148.0,866.0,-353.0,-28.0,-62.0,-172.0,471.0,32875.0,5516800.0,2348.0,2816.0,0.0
3714335000,0.010266863228834468,97400.73260073259,2301.0,2044.0,2052.0,1222.0,452.0,-284.0,-16044.0,865.0,-350.0,-15.0,-62.0,-186.0,464.0,32875.0,5516800.0,2290.0,2816.0,0.0
3714591000,0.010266863228834468,97400.73260073259,2296.0,2043.0,2053.0,1223.0,416.0,-268.0,-16004.0,868.0,-364.0,-51.0,-61.0,-179.0,467.0,32875.0,5516800.0,2270.0,2817.0,0.0
3714847000,0.010266657306751175,97402.68620268619,2254.0,2042.0,2052.0,1224.0,440.0,-272.0,-16052.0,882.0,-345.0,-23.0,-64.0,-172.0,473.0,32875.0,5516800.0,2254.0,2816.0,0.0
3715103000,0.010266863228834468,97400.73260073259,2269.0,2042.0,2051.0,1222.0,448.0,-292.0,-16128.0,879.0,-356.0,-31.0,-64.0,-172.0,473.0,32875.0,5516800.0,2246.0,2816.0,0.0
3715359000,0.010266863228834468,97400.73260073259,2214.0,2043.0,2050.0,1221.0,432.0,-276.0,-16056.0,870.0,-349.0,-16.0,-67.0,-177.0,463.0,32875.0,5516800.0,2243.0,2816.0,0.0
3715615000,0.010266863228834468,97400.73260073259,2233.0,2043.0,2051.0,1222.0,416.0,-284.0,-16016.0,877.0,-347.0,-29.0,-66.0,-181.0,468.0,32875.0,5516800.0,2248.0,2817.0,0.0
3715871000,0.010266863228834468,97400.73260073259,2239.0,2042.0,2052.0,1220.0,464.0,-292.0,-16112.0,873.0,-345.0,-29.0,-66.0,-180.0,466.0,32875.0,5516800.0,2250.0,2817.0,0.0
3716127000,0.010266657306751175,97402.68620268619,2252.0,2043.0,2052.0,1221.0,400.0,-300.0,-16088.0,873.0,-349.0,-21.0,-73.0,-171.0,467.0,32875.0,5517056.0,2498.0,2815.0,0.0
3716383000,0.010266863228834468,97400.73260073259,2273.0,2041.0,2051.0,1222.0,416.0,-292.0,-16108.0,877.0,-343.0,-36.0,-73.0,-171.0,467.0,32875.0,5517056.0,2357.0,2816.0,0.0
3716639000,0.010266863228834468,97400.73260073259,2314.0,2042.0,2052.0,1223.0,396.0,-300.0,-16020.0,864.0,-357.0,-24.0,-71.0,-177.0,466.0,32875.0,5517056.0,2301.0,2817.0,0.0
3716895000,0.010266863228834468,97400.73260073259,2330.0,2042.0,2053.0,1221.0,436.0,-316.0,-16068.0,884.0,-332.0,-7.0,-69.0,-174.0,465.0,32875.0,5517056.0,2275.0,2817.0,0.0
3717151000,0.010266863228834468,97400.73260073259,2365.0,2042.0,2052.0,1221.0,424.0,-312.0,-16140.0,862.0,-347.0,-19.0,-68.0,-180.0,472.0,32875.0,5517056.0,2509.0,2815.0,0.0
3717407000,0.010266863228834468,97400.73260073259,2270.0,2042.0,2054.0,1221.0,448.0,-316.0,-16128.0,886.0,-355.0,-32.0,-68.0,-180.0,472.0,32875.0,5517056.0,2362.0,2816.0,0.0
3717663000,0.010266863228834468,97400.73260073259,2383.0,2043.0,2051.0,1224.0,440.0,-268.0,-16012.0,886.0,-349.0,-30.0,-71.0,-178.0,462.0,32875.0,5517312.0,2303.0,2817.0,0.0
3717919000,0.010266863228834468,97400.73260073259,2343.0,2042.0,2049.0,1223.0,436.0,-276.0,-16072.0,887.0,-342.0,-16.0,-67.0,-171.0,466.0,32875.0,5517312.0,2277.0,2818.0,0.0
3718175000,0.010266863228834468,97400.73260073259,2354.0,2041.0,2053.0,1221.0,428.0,-328.0,-16052.0,867.0,-338.0,-11.0,-62.0,-179.0,475.0,32875.0,5517056.0,2510.0,2815.0,0.0
3718431000,0.010266863228834468,97400.73260073259,2381.0,2042.0,2052.0,1221.0,428.0,-288.0,-16092.0,865.0,-334.0,-32.0,-62.0,-182.0,472.0,32875.0,5517056.0,2617.0,2815.0,0.0
3718687000,0.010266863228834468,97400.73260073259,2364.0,2043.0,2050.0,1221.0,444.0,-272.0,-16124.0,860.0,-358.0,-20.0,-62.0,-182.0,472.0,32875.0,5517312.0,2412.0,2816.0,0.0
3718943000,0.010266863228834468,97400.73260073259,2266.0,2043.0,2051.0,1221.0,452.0,-276.0,-16040.0,869.0,-365.0,-38.0,-69.0,-175.0,473.0,32875.0,5517312.0,2326.0,2817.0,0.0
3719199000,0.010266863228834468,97400.73260073259,2292.0,2042.0,2053.0,1219.0,440.0,-272.0,-16052.0,878.0,-356.0,-28.0,-68.0,-180.0,468.0,32875.0,5517568.0,2279.0,2816.0,0.0
3719455000,0.010266657306751175,97402.68620268619,2287.0,2041.0,2051.0,1223.0,448.0,-284.0,-16108.0,884.0,-348.0,-26.0,-66.0,-175.0,470.0,32875.0,5517568.0,2491.0,2808.0,0.0
3719711000,0.010266863228834468,97400.73260073259,2276.0,2041.0,2052.0,1225.0,416.0,-296.0,-16068.0,893.0,-348.0,-34.0,-71.0,-174.0,469.0,32875.0,5516800.0,2354.0,2816.0,0.0
3719967000,0.010266863228834468,97400.73260073259,2308.0,2042.0,2051.0,1224.0,404.0,-256.0,-16040.0,864.0,-331.0,-31.0,-71.0,-174.0,469.0,32875.0,5516800.0,2299.0,2817.0,0.0
3720223000,0.010266863228834468,97400.73260073259,2300.0,2043.0,2052.0,1221.0,452.0,-308.0,-16084.0,852.0,-362.0,-27.0,-68.0,-177.0,468.0,32875.0,5517312.0,2476.0,2796.0,0.0
3720479000,0.010266863228834468,97400.73260073259,2253.0,2042.0,2053.0,1224.0,444.0,-304.0,-16056.0,862.0,-349.0,-27.0,-70.0,-178.0,465.0,32875.0,5517312.0,2354.0,2817.0,0.0
3720735000,0.010266657306751175,97402.68620268619,2288.0,2042.0,2054.0,1221.0,408.0,-324.0,-16064.0,886.0,-353.0,-33.0,-72.0,-168.0,463.0,32875.0,5517312.0,2292.0,2816.0,0.0
