Shimmer_A5E0_Timestamp_Unix_CAL,Shimmer_A5E0_GSR_Skin_Conductance_CAL_uS,Shimmer_A5E0_GSR_Skin_Resistance_CAL_kOhm,Shimmer_A5E0_PPG_A13_CAL_mV,Shimmer_A5E0_Accel_LN_X_CAL_m/s^2,Shimmer_A5E0_Accel_LN_Y_CAL_m/s^2,Shimmer_A5E0_Accel_LN_Z_CAL_m/s^2,Shimmer_A5E0_Accel_WR_X_CAL_m/s^2,Shimmer_A5E0_Accel_WR_Y_CAL_m/s^2,Shimmer_A5E0_Accel_WR_Z_CAL_m/s^2,Shimmer_A5E0_Gyro_X_CAL_deg/s,Shimmer_A5E0_Gyro_Y_CAL_deg/s,Shimmer_A5E0_Gyro_Z_CAL_deg/s,Shimmer_A5E0_Mag_X_CAL_local,Shimmer_A5E0_Mag_Y_CAL_local,Shimmer_A5E0_Mag_Z_CAL_local,Shimmer_A5E0_Temperature_BMP280_CAL_Celcius,Shimmer_A5E0_Pressure_BMP280_CAL_Pa,Shimmer_A5E0_Ext_Exp_A7_CAL_mV,Shimmer_A5E0_VSenseBatt_CAL_mV,Shimmer_A5E0_PPGtoHR_CAL_BPM
4117973000,0.7494509516837482,1334.3101343101343,2325.0,2034.0,2037.0,1219.0,252.0,72.0,-16156.0,853.0,-342.0,-30.0,6386.0,-4568.0,-23379.0,32768.0,5436416.0,2382.0,2509.0,0.0
4118229000,0.7494509516837482,1334.3101343101343,2330.0,2036.0,2035.0,1221.0,348.0,60.0,-16116.0,827.0,-340.0,-25.0,6386.0,-4568.0,-23379.0,32768.0,5436416.0,2388.0,2511.0,0.0
4118485000,0.7494509516837482,1334.3101343101343,2327.0,2035.0,2038.0,1221.0,288.0,88.0,-16096.0,843.0,-331.0,-19.0,6387.0,-4563.0,-23372.0,32768.0,5436672.0,2385.0,2510.0,0.0
4118741000,0.7494509516837482,1334.3101343101343,2322.0,2036.0,2038.0,1222.0,276.0,76.0,-16092.0,854.0,-336.0,-37.0,6386.0,-4570.0,-23375.0,32768.0,5436672.0,2382.0,2509.0,0.0
4118997000,0.7494509516837482,1334.3101343101343,2319.0,2035.0,2036.0,1222.0,260.0,84.0,-16072.0,825.0,-347.0,-27.0,6386.0,-4559.0,-23375.0,32768.0,5436928.0,2382.0,2510.0,0.0
4119253000,0.7494509516837482,1334.3101343101343,2313.0,2035.0,2036.0,1222.0,304.0,80.0,-16152.0,843.0,-321.0,-6.0,6397.0,-4567.0,-23374.0,32768.0,5436928.0,2382.0,2510.0,0.0
4119509000,0.7494509516837482,1334.3101343101343,2316.0,2035.0,2035.0,1221.0,284.0,36.0,-16156.0,849.0,-324.0,-39.0,6397.0,-4567.0,-23374.0,32768.0,5437184.0,2382.0,2510.0,0.0
4119765000,0.7494509516837482,1334.3101343101343,2313.0,2036.0,2036.0,1220.0,308.0,92.0,-16064.0,862.0,-343.0,-22.0,6396.0,-4565.0,-23375.0,32768.0,5437184.0,2381.0,2509.0,0.0
4120021000,0.029990332786501057,33344.07814407814,2313.0,2036.0,2036.0,1223.0,300.0,116.0,-16096.0,836.0,-350.0,-36.0,6379.0,-4565.0,-23368.0,32768.0,5436672.0,2381.0,2510.0,0.0
4120277000,0.029990332786501057,33344.07814407814,2315.0,2035.0,2036.0,1222.0,340.0,64.0,-16140.0,855.0,-355.0,-16.0,6389.0,-4561.0,-23372.0,32768.0,5436672.0,2382.0,2510.0,0.0
4120533000,0.029990332786501057,33344.07814407814,2296.0,2037.0,2036.0,1221.0,296.0,72.0,-16100.0,851.0,-342.0,-21.0,6389.0,-4561.0,-23372.0,32768.0,5436928.0,2374.0,2508.0,0.0
4120789000,0.029990332786501057,33344.07814407814,2301.0,2036.0,2036.0,1223.0,288.0,52.0,-16140.0,860.0,-344.0,-32.0,6387.0,-4564.0,-23374.0,32768.0,5436928.0,2377.0,2509.0,0.0
4121045000,0.029990332786501057,33344.07814407814,2299.0,2037.0,2037.0,1223.0,316.0,76.0,-16136.0,848.0,-359.0,-36.0,6382.0,-4564.0,-23366.0,32768.0,5436416.0,2380.0,2510.0,0.0
4121301000,0.029990332786501057,33344.07814407814,2318.0,2036.0,2038.0,1222.0,316.0,48.0,-16100.0,838.0,-338.0,-40.0,6382.0,-4564.0,-23373.0,32768.0,5436416.0,2387.0,2511.0,0.0
4121557000,0.029990332786501057,33344.07814407814,2310.0,2035.0,2038.0,1223.0,348.0,88.0,-16096.0,862.0,-350.0,-24.0,6383.0,-4564.0,-23368.0,32768.0,5437440.0,2377.0,2508.0,0.0
4121813000,0.029990332786501057,33344.07814407814,2301.0,2036.0,2038.0,1221.0,308.0,40.0,-16156.0,848.0,-323.0,-34.0,6383.0,-4564.0,-23368.0,32768.0,5437440.0,2378.0,2509.0,0.0
4122069000,0.029990332786501057,33344.07814407814,2304.0,2034.0,2036.0,1220.0,324.0,112.0,-16092.0,840.0,-324.0,-18.0,6386.0,-4564.0,-23370.0,32768.0,5436928.0,2380.0,2510.0,0.0
4122325000,0.029990332786501057,33344.07814407814,2320.0,2035.0,2036.0,1221.0,300.0,68.0,-16120.0,856.0,-351.0,-22.0,6386.0,-4566.0,-23368.0,32768.0,5436928.0,2387.0,2511.0,0.0
4122581000,0.029990332786501057,33344.07814407814,2317.0,2034.0,2036.0,1223.0,272.0,56.0,-16132.0,843.0,-337.0,-31.0,6393.0,-4559.0,-23372.0,32768.0,5437696.0,2384.0,2509.0,0.0
4122837000,0.015299946197991392,65359.70695970696,2309.0,2035.0,2037.0,1223.0,304.0,76.0,-16124.0,814.0,-332.0,-28.0,6393.0,-4565.0,-23375.0,32768.0,5437696.0,2375.0,2508.0,0.0
4123093000,0.015299946197991392,65359.70695970696,2306.0,2036.0,2037.0,1223.0,344.0,80.0,-16136.0,848.0,-315.0,-12.0,6393.0,-4565.0,-23375.0,32768.0,5437440.0,2379.0,2510.0,0.0
4123349000,0.015299946197991392,65359.70695970696,2319.0,2036.0,2036.0,1222.0,268.0,64.0,-16060.0,852.0,-335.0,-21.0,6391.0,-4566.0,-23373.0,32768.0,5437440.0,2386.0,2511.0,0.0
4123605000,0.015299946197991392,65359.70695970696,2323.0,2036.0,2036.0,1223.0,284.0,100.0,-16140.0,844.0,-333.0,-35.0,6394.0,-4563.0,-23368.0,32768.0,5437184.0,2383.0,2509.0,0.0
4123861000,0.015299946197991392,65359.70695970696,2248.0,2036.0,2038.0,1222.0,336.0,48.0,-16148.0,847.0,-335.0,-42.0,6384.0,-4565.0,-23368.0,32768.0,5437184.0,2346.0,2493.0,0.0
4124117000,0.015299946197991392,65359.70695970696,2250.0,2036.0,2037.0,1222.0,304.0,88.0,-16144.0,827.0,-343.0,-21.0,6384.0,-4559.0,-23368.0,32768.0,5437440.0,2365.0,2510.0,0.0
4124373000,0.015299946197991392,65359.70695970696,2263.0,2035.0,2037.0,1220.0,340.0,52.0,-16104.0,850.0,-343.0,-30.0,6384.0,-4559.0,-23368.0,32768.0,5437440.0,2374.0,2510.0,0.0
4124629000,0.015299946197991392,65359.70695970696,2282.0,2037.0,2037.0,1221.0,276.0,52.0,-16104.0,847.0,-333.0,-13.0,6382.0,-4562.0,-23370.0,32768.0,5437440.0,2378.0,2510.0,0.0
4124885000,0.015299946197991392,65359.70695970696,2291.0,2037.0,2036.0,1220.0,336.0,76.0,-16124.0,851.0,-343.0,-28.0,6390.0,-4565.0,-23367.0,32768.0,5437440.0,2380.0,2510.0,0.0
4125141000,0.015299946197991392,65359.70695970696,2299.0,2036.0,2036.0,1223.0,300.0,44.0,-16100.0,832.0,-351.0,-36.0,6387.0,-4561.0,-23371.0,32768.0,5437440.0,2381.0,2510.0,0.0
4125397000,0.015299946197991392,65359.70695970696,2306.0,2036.0,2035.0,1221.0,296.0,32.0,-16136.0,860.0,-336.0,-23.0,6388.0,-4562.0,-23366.0,32768.0,5437440.0,2381.0,2510.0,0.0
4125653000,0.010267892963170986,97390.96459096459,2294.0,2036.0,2036.0,1223.0,272.0,80.0,-16096.0,851.0,-333.0,-10.0,6388.0,-4562.0,-23366.0,32768.0,5437184.0,2374.0,2508.0,0.0
4125909000,0.010267892963170986,97390.96459096459,2228.0,2036.0,2036.0,1221.0,276.0,76.0,-16108.0,855.0,-352.0,-27.0,6392.0,-4562.0,-23366.0,32768.0,5437184.0,2342.0,2493.0,0.0
4126165000,0.010267892963170986,97390.96459096459,2238.0,2035.0,2037.0,1220.0,276.0,28.0,-16072.0,824.0,-320.0,-19.0,6394.0,-4559.0,-23369.0,32768.0,5437952.0,2363.0,2510.0,0.0
4126421000,0.010267892963170986,97390.96459096459,2263.0,2036.0,2038.0,1221.0,256.0,84.0,-16116.0,864.0,-332.0,-38.0,6397.0,-4556.0,-23365.0,32768.0,5437952.0,2380.0,2511.0,0.0
4126677000,0.010267892963170986,97390.96459096459,2273.0,2035.0,2036.0,1221.0,296.0,68.0,-16120.0,841.0,-333.0,-23.0,6397.0,-4556.0,-23365.0,32768.0,5437952.0,2373.0,2508.0,0.0
4126933000,0.010267892963170986,97390.96459096459,2285.0,2037.0,2037.0,1220.0,320.0,112.0,-16124.0,841.0,-340.0,-29.0,6392.0,-4561.0,-23366.0,32768.0,5437952.0,2378.0,2510.0,0.0
4127189000,0.010267892963170986,97390.96459096459,2292.0,2036.0,2035.0,1220.0,324.0,96.0,-16128.0,852.0,-331.0,-22.0,6386.0,-4561.0,-23366.0,32768.0,5437696.0,2380.0,2510.0,0.0
4127445000,0.010267892963170986,97390.96459096459,2316.0,2036.0,2037.0,1222.0,320.0,72.0,-16072.0,841.0,-344.0,-15.0,6384.0,-4559.0,-23358.0,32768.0,5437696.0,2387.0,2511.0,0.0
4127701000,0.010267892963170986,97390.96459096459,2317.0,2035.0,2037.0,1221.0,324.0,56.0,-16072.0,840.0,-354.0,-21.0,6376.0,-4565.0,-23364.0,32768.0,5437440.0,2383.0,2509.0,0.0
4127957000,0.010267892963170986,97390.96459096459,2233.0,2036.0,2036.0,1222.0,324.0,80.0,-16120.0,839.0,-332.0,-11.0,6376.0,-4565.0,-23364.0,32768.0,5437440.0,2340.0,2492.0,0.0
4128213000,0.010267892963170986,97390.96459096459,2249.0,2035.0,2037.0,1225.0,276.0,56.0,-16120.0,847.0,-339.0,-28.0,6386.0,-4565.0,-23366.0,32768.0,5437696.0,2369.0,2511.0,0.0
4128469000,0.010267892963170986,97390.96459096459,2278.0,2035.0,2036.0,1222.0,288.0,48.0,-16128.0,843.0,-346.0,-26.0,6386.0,-4564.0,-23358.0,32768.0,5437696.0,2382.0,2511.0,0.0
4128725000,0.010267892963170986,97390.96459096459,2297.0,2036.0,2038.0,1222.0,260.0,112.0,-16068.0,855.0,-332.0,-24.0,6382.0,-4565.0,-23364.0,32768.0,5437440.0,2382.0,2510.0,0.0
4128981000,0.010267892963170986,97390.96459096459,2294.0,2036.0,2037.0,1223.0,288.0,64.0,-16096.0,845.0,-357.0,-29.0,6388.0,-4559.0,-23369.0,32768.0,5437440.0,2380.0,2507.0,0.0
4129237000,0.010267892963170986,97390.96459096459,2304.0,2036.0,2037.0,1222.0,288.0,56.0,-16124.0,847.0,-320.0,-25.0,6388.0,-4559.0,-23369.0,32768.0,5437440.0,2381.0,2510.0,0.0
4129493000,0.010267892963170986,97390.96459096459,2318.0,2036.0,2038.0,1222.0,324.0,48.0,-16116.0,837.0,-346.0,-29.0,6395.0,-4555.0,-23355.0,32768.0,5437440.0,2388.0,2511.0,0.0
4129749000,0.010267892963170986,97390.96459096459,2319.0,2036.0,2037.0,1222.0,312.0,56.0,-16072.0,826.0,-351.0,-33.0,6398.0,-4560.0,-23367.0,32768.0,5438208.0,2383.0,2509.0,0.0
4130005000,0.010267892963170986,97390.96459096459,2319.0,2036.0,2038.0,1221.0,264.0,72.0,-16040.0,858.0,-337.0,-37.0,6391.0,-4563.0,-23363.0,32768.0,5438208.0,2381.0,2509.0,0.0
4130261000,0.010267892963170986,97390.96459096459,2312.0,2034.0,2037.0,1222.0,300.0,64.0,-16120.0,851.0,-345.0,-27.0,6389.0,-4559.0,-23360.0,32768.0,5438464.0,2381.0,2509.0,0.0
4130517000,0.010267892963170986,97390.96459096459,2314.0,2036.0,2038.0,1221.0,268.0,80.0,-16120.0,851.0,-345.0,-27.0,6389.0,-4559.0,-23360.0,32768.0,5438464.0,2382.0,2510.0,0.0
4130773000,0.010267892963170986,97390.96459096459,2316.0,2036.0,2037.0,1221.0,304.0,72.0,-16084.0,854.0,-347.0,-20.0,6387.0,-4560.0,-23359.0,32768.0,5438208.0,2382.0,2510.0,0.0
4131029000,0.010267892963170986,97390.96459096459,2244.0,2036.0,2038.0,1220.0,324.0,80.0,-16068.0,865.0,-329.0,-38.0,6386.0,-4563.0,-23363.0,32768.0,5438208.0,2346.0,2494.0,0.0
4131285000,0.010267892963170986,97390.96459096459,2250.0,2036.0,2039.0,1221.0,316.0,68.0,-16120.0,844.0,-349.0,0.0,6375.0,-4565.0,-23361.0,32768.0,5438208.0,2366.0,2510.0,0.0
4131541000,0.010267892963170986,97390.96459096459,2169.0,2036.0,2038.0,1223.0,316.0,64.0,-16116.0,845.0,-333.0,-32.0,6375.0,-4565.0,-23361.0,32768.0,5438208.0,2328.0,2489.0,0.0
4131797000,0.010267892963170986,97390.96459096459,2186.0,2035.0,2037.0,1222.0,280.0,96.0,-16120.0,838.0,-339.0,-37.0,6379.0,-4565.0,-23359.0,32768.0,5437952.0,2356.0,2509.0,0.0
4132053000,0.010267892963170986,97390.96459096459,2154.0,2037.0,2037.0,1222.0,292.0,60.0,-16052.0,844.0,-331.0,-18.0,6386.0,-4566.0,-23358.0,32768.0,5437952.0,2334.0,2493.0,0.0
4132309000,0.010267892963170986,97390.96459096459,2182.0,2036.0,2038.0,1221.0,312.0,92.0,-16084.0,837.0,-339.0,-31.0,6391.0,-4562.0,-23363.0,32768.0,5437440.0,2360.0,2510.0,0.0
4132565000,0.010267892963170986,97390.96459096459,2224.0,2036.0,2036.0,1222.0,312.0,76.0,-16104.0,844.0,-336.0,-31.0,6386.0,-4558.0,-23361.0,32768.0,5437440.0,2372.0,2510.0,0.0
4132821000,0.010267892963170986,97390.96459096459,2240.0,2037.0,2038.0,1221.0,324.0,76.0,-16104.0,845.0,-347.0,-21.0,6386.0,-4558.0,-23361.0,32768.0,5437696.0,2370.0,2508.0,0.0
4133077000,0.010267892963170986,97390.96459096459,2263.0,2036.0,2038.0,1223.0,292.0,44.0,-16108.0,864.0,-334.0,-40.0,6392.0,-4560.0,-23358.0,32768.0,5437696.0,2376.0,2510.0,0.0
4133333000,0.010267892963170986,97390.96459096459,2295.0,2036.0,2038.0,1220.0,292.0,28.0,-16060.0,844.0,-335.0,-10.0,6386.0,-4557.0,-23359.0,32768.0,5437952.0,2385.0,2511.0,0.0
4133589000,0.010267892963170986,97390.96459096459,2314.0,2035.0,2037.0,1222.0,308.0,64.0,-16080.0,841.0,-327.0,-18.0,6385.0,-4557.0,-23362.0,32768.0,5437952.0,2390.0,2511.0,0.0
4133845000,0.010267892963170986,97390.96459096459,2308.0,2036.0,2036.0,1224.0,336.0,64.0,-16104.0,868.0,-336.0,-29.0,6394.0,-4559.0,-23357.0,32768.0,5437952.0,2378.0,2508.0,0.0
4134101000,0.010267892963170986,97390.96459096459,2289.0,2035.0,2037.0,1222.0,284.0,60.0,-16120.0,830.0,-351.0,-19.0,6394.0,-4559.0,-23357.0,32768.0,5437952.0,2372.0,2508.0,0.0
4134357000,0.010267892963170986,97390.96459096459,2306.0,2036.0,2038.0,1221.0,284.0,56.0,-16064.0,846.0,-337.0,-26.0,6379.0,-4559.0,-23360.0,32768.0,5437696.0,2383.0,2511.0,0.0
4134613000,0.010267892963170986,97390.96459096459,2320.0,2035.0,2037.0,1222.0,288.0,32.0,-16068.0,842.0,-327.0,-12.0,6378.0,-4559.0,-23362.0,32768.0,5437696.0,2388.0,2511.0,0.0
4134869000,0.010267892963170986,97390.96459096459,2315.0,2035.0,2035.0,1223.0,236.0,88.0,-16064.0,826.0,-347.0,-29.0,6382.0,-4557.0,-23360.0,32768.0,5437696.0,2384.0,2509.0,0.0
4135125000,0.010267892963170986,97390.96459096459,2240.0,2036.0,2035.0,1220.0,228.0,88.0,-16100.0,840.0,-355.0,-38.0,6378.0,-4564.0,-23358.0,32768.0,5437696.0,2344.0,2491.0,0.0
4135381000,0.010267892963170986,97390.96459096459,2239.0,2035.0,2038.0,1222.0,284.0,64.0,-16104.0,856.0,-332.0,-31.0,6378.0,-4564.0,-23358.0,32768.0,5437440.0,2364.0,2509.0,0.0
4135637000,0.010267892963170986,97390.96459096459,2267.0,2036.0,2035.0,1222.0,292.0,64.0,-16068.0,839.0,-345.0,-15.0,6379.0,-4556.0,-23353.0,32768.0,5437440.0,2380.0,2511.0,0.0
4135893000,0.010267892963170986,97390.96459096459,2291.0,2036.0,2034.0,1222.0,272.0,44.0,-16068.0,834.0,-326.0,-28.0,6386.0,-4559.0,-23363.0,32768.0,5437696.0,2381.0,2510.0,0.0
4136149000,0.010267892963170986,97390.96459096459,2284.0,2036.0,2036.0,1222.0,276.0,52.0,-16100.0,853.0,-346.0,-31.0,6392.0,-4552.0,-23359.0,32768.0,5437696.0,2374.0,2509.0,0.0
4136405000,0.010267892963170986,97390.96459096459,2290.0,2036.0,2035.0,1220.0,260.0,72.0,-16060.0,833.0,-344.0,-37.0,6392.0,-4552.0,-23359.0,32768.0,5437696.0,2377.0,2509.0,0.0
4136661000,0.010267892963170986,97390.96459096459,2296.0,2037.0,2037.0,1222.0,280.0,44.0,-16044.0,842.0,-338.0,-38.0,6384.0,-4556.0,-23358.0,32768.0,5437696.0,2380.0,2510.0,0.0
4136917000,0.010267892963170986,97390.96459096459,2302.0,2035.0,2035.0,1222.0,268.0,76.0,-16076.0,832.0,-345.0,-25.0,6392.0,-4553.0,-23355.0,32768.0,5437696.0,2381.0,2510.0,0.0
4137173000,0.010267892963170986,97390.96459096459,2309.0,2036.0,2036.0,1221.0,300.0,60.0,-16092.0,845.0,-349.0,-21.0,6389.0,-4565.0,-23359.0,32768.0,5437696.0,2381.0,2510.0,0.0
4137429000,0.010267892963170986,97390.96459096459,2308.0,2036.0,2036.0,1223.0,296.0,72.0,-16112.0,825.0,-335.0,-14.0,6395.0,-4564.0,-23357.0,32768.0,5438208.0,2381.0,2510.0,0.0
4137685000,0.010267892963170986,97390.96459096459,2308.0,2036.0,2036.0,1223.0,248.0,88.0,-16128.0,837.0,-329.0,-29.0,6395.0,-4564.0,-23357.0,32768.0,5438208.0,2381.0,2510.0,0.0
4137941000,0.010267892963170986,97390.96459096459,2314.0,2036.0,2036.0,1222.0,280.0,76.0,-16124.0,862.0,-331.0,-33.0,6387.0,-4561.0,-23359.0,32768.0,5437952.0,2381.0,2510.0,0.0
4138197000,0.010267892963170986,97390.96459096459,2242.0,2035.0,2037.0,1220.0,304.0,64.0,-16084.0,833.0,-333.0,-28.0,6383.0,-4558.0,-23356.0,32768.0,5437952.0,2345.0,2493.0,0.0
4138453000,0.010267892963170986,97390.96459096459,2247.0,2036.0,2037.0,1219.0,296.0,64.0,-16100.0,864.0,-345.0,-27.0,6381.0,-4560.0,-23352.0,32768.0,5437440.0,2365.0,2510.0,0.0
4138709000,0.010267892963170986,97390.96459096459,2262.0,2036.0,2035.0,1221.0,292.0,80.0,-16096.0,857.0,-358.0,-26.0,6381.0,-4558.0,-23355.0,32768.0,5437440.0,2374.0,2510.0,0.0
4138965000,0.010267892963170986,97390.96459096459,2276.0,2036.0,2036.0,1221.0,296.0,64.0,-16112.0,838.0,-322.0,-32.0,6381.0,-4558.0,-23355.0,32768.0,5437696.0,2377.0,2509.0,0.0
4139221000,0.010267892963170986,97390.96459096459,2227.0,2037.0,2036.0,1220.0,260.0,64.0,-16088.0,852.0,-330.0,-27.0,6379.0,-4558.0,-23357.0,32768.0,5437696.0,2343.0,2493.0,0.0
4139477000,0.010267892963170986,97390.96459096459,2248.0,2036.0,2036.0,1221.0,272.0,52.0,-16136.0,831.0,-340.0,-28.0,6383.0,-4557.0,-23356.0,32768.0,5437696.0,2371.0,2511.0,0.0
4139733000,0.010267892963170986,97390.96459096459,2286.0,2035.0,2037.0,1223.0,272.0,64.0,-16088.0,834.0,-327.0,-29.0,6385.0,-4556.0,-23349.0,32768.0,5437696.0,2383.0,2511.0,0.0
4139989000,0.010267892963170986,97390.96459096459,2296.0,2035.0,2038.0,1224.0,308.0,88.0,-16116.0,845.0,-339.0,-27.0,6386.0,-4557.0,-23356.0,32768.0,5437696.0,2381.0,2509.0,0.0
4140245000,0.010267892963170986,97390.96459096459,2233.0,2037.0,2037.0,1221.0,256.0,28.0,-16096.0,860.0,-327.0,-25.0,6386.0,-4557.0,-23356.0,32768.0,5437696.0,2345.0,2493.0,0.0
4140501000,0.010267892963170986,97390.96459096459,2255.0,2035.0,2037.0,1221.0,292.0,84.0,-16112.0,854.0,-337.0,-25.0,6387.0,-4560.0,-23354.0,32768.0,5437440.0,2372.0,2511.0,0.0
4140757000,0.010267892963170986,97390.96459096459,2194.0,2035.0,2036.0,1221.0,252.0,56.0,-16072.0,828.0,-349.0,-20.0,6389.0,-4560.0,-23355.0,32768.0,5437440.0,2338.0,2491.0,0.0
4141013000,0.010267892963170986,97390.96459096459,2213.0,2037.0,2034.0,1219.0,324.0,92.0,-16104.0,841.0,-346.0,-28.0,6383.0,-4559.0,-23354.0,32768.0,5437952.0,2362.0,2510.0,0.0
4141269000,0.010267892963170986,97390.96459096459,2243.0,2036.0,2038.0,1223.0,236.0,40.0,-16056.0,837.0,-334.0,-32.0,6383.0,-4557.0,-23355.0,32768.0,5437952.0,2371.0,2509.0,0.0
4141525000,0.010267892963170986,97390.96459096459,2261.0,2034.0,2036.0,1222.0,284.0,68.0,-16108.0,849.0,-356.0,-16.0,6383.0,-4557.0,-23355.0,32768.0,5437440.0,2376.0,2509.0,0.0
4141781000,0.010267892963170986,97390.96459096459,2295.0,2036.0,2036.0,1221.0,264.0,52.0,-16116.0,852.0,-363.0,-25.0,6384.0,-4558.0,-23350.0,32768.0,5437440.0,2385.0,2511.0,0.0
4142037000,0.01026809893482578,97389.01098901099,2307.0,2037.0,2037.0,1222.0,308.0,56.0,-16108.0,850.0,-347.0,-48.0,6382.0,-4556.0,-23353.0,32768.0,5437696.0,2383.0,2510.0,0.0
4142293000,0.010267892963170986,97390.96459096459,2242.0,2037.0,2037.0,1220.0,300.0,68.0,-16088.0,830.0,-326.0,-18.0,6378.0,-4566.0,-23351.0,32768.0,5437696.0,2346.0,2493.0,0.0
4142549000,0.010267892963170986,97390.96459096459,2240.0,2036.0,2036.0,1222.0,304.0,96.0,-16068.0,848.0,-325.0,-32.0,6378.0,-4566.0,-23351.0,32768.0,5437952.0,2364.0,2509.0,0.0
4142805000,0.010267892963170986,97390.96459096459,2266.0,2036.0,2035.0,1220.0,296.0,96.0,-16100.0,844.0,-345.0,-31.0,6369.0,-4559.0,-23350.0,32768.0,5437952.0,2380.0,2511.0,0.0
4143061000,0.010267892963170986,97390.96459096459,2291.0,2036.0,2038.0,1219.0,296.0,40.0,-16068.0,850.0,-352.0,-23.0,6380.0,-4553.0,-23353.0,32768.0,5437440.0,2381.0,2510.0,0.0
4143317000,0.010267892963170986,97390.96459096459,2231.0,2035.0,2035.0,1221.0,272.0,100.0,-16040.0,842.0,-348.0,-28.0,6378.0,-4563.0,-23350.0,32768.0,5437440.0,2346.0,2494.0,0.0
4143573000,0.010267892963170986,97390.96459096459,2239.0,2035.0,2037.0,1221.0,264.0,116.0,-16020.0,856.0,-347.0,-8.0,6383.0,-4555.0,-23353.0,32768.0,5437440.0,2365.0,2510.0,0.0
4143829000,0.01026809893482578,97389.01098901099,2260.0,2036.0,2037.0,1221.0,304.0,60.0,-16096.0,839.0,-329.0,-30.0,6383.0,-4555.0,-23353.0,32768.0,5437440.0,2374.0,2510.0,0.0
4144085000,0.010267892963170986,97390.96459096459,2275.0,2037.0,2038.0,1222.0,300.0,92.0,-16072.0,860.0,-336.0,-34.0,6388.0,-4554.0,-23353.0,32768.0,5437440.0,2377.0,2509.0,0.0
4144341000,0.010267892963170986,97390.96459096459,2290.0,2035.0,2037.0,1223.0,284.0,40.0,-16032.0,839.0,-332.0,-44.0,6374.0,-4552.0,-23351.0,32768.0,5437440.0,2380.0,2510.0,0.0
4144597000,0.010267892963170986,97390.96459096459,2299.0,2035.0,2037.0,1221.0,312.0,48.0,-16052.0,847.0,-326.0,-19.0,6395.0,-4555.0,-23354.0,32768.0,5437952.0,2381.0,2510.0,0.0
4144853000,0.010267892963170986,97390.96459096459,2217.0,2036.0,2034.0,1221.0,312.0,100.0,-16116.0,845.0,-349.0,-17.0,6381.0,-4557.0,-23352.0,32768.0,5437952.0,2335.0,2489.0,0.0
4145109000,0.010267892963170986,97390.96459096459,2220.0,2036.0,2036.0,1220.0,316.0,56.0,-16128.0,850.0,-352.0,-24.0,6381.0,-4557.0,-23352.0,32768.0,5437952.0,2360.0,2509.0,0.0
4145365000,0.010267892963170986,97390.96459096459,2171.0,2035.0,2035.0,1221.0,308.0,48.0,-16144.0,834.0,-352.0,-15.0,6375.0,-4557.0,-23358.0,32768.0,5437952.0,2336.0,2494.0,0.0
4145621000,0.010267892963170986,97390.96459096459,2215.0,2036.0,2037.0,1224.0,304.0,60.0,-16104.0,852.0,-346.0,-11.0,6376.0,-4553.0,-23355.0,32768.0,5438208.0,2367.0,2511.0,0.0
4145877000,0.010267892963170986,97390.96459096459,2259.0,2037.0,2036.0,1220.0,316.0,104.0,-16080.0,828.0,-311.0,-30.0,6366.0,-4562.0,-23353.0,32768.0,5438208.0,2381.0,2511.0,0.0
4146133000,0.010267892963170986,97390.96459096459,2267.0,2035.0,2037.0,1222.0,304.0,56.0,-16096.0,836.0,-330.0,-3.0,6375.0,-4555.0,-23354.0,32768.0,5438208.0,2374.0,2508.0,0.0
4146389000,0.010267892963170986,97390.96459096459,2285.0,2035.0,2035.0,1220.0,328.0,84.0,-16112.0,851.0,-326.0,-9.0,6375.0,-4555.0,-23354.0,32768.0,5438208.0,2378.0,2510.0,0.0
4146645000,0.010267892963170986,97390.96459096459,2291.0,2035.0,2034.0,1219.0,288.0,100.0,-16104.0,849.0,-363.0,-28.0,6384.0,-4556.0,-23356.0,32768.0,5438208.0,2380.0,2510.0,0.0
4146901000,0.010267892963170986,97390.96459096459,2314.0,2033.0,2035.0,1221.0,304.0,24.0,-16060.0,836.0,-339.0,-12.0,6388.0,-4549.0,-23352.0,32768.0,5438208.0,2387.0,2511.0,0.0
4147157000,0.010267892963170986,97390.96459096459,2320.0,2035.0,2036.0,1221.0,304.0,96.0,-16064.0,834.0,-332.0,-15.0,6392.0,-4567.0,-23352.0,32768.0,5437952.0,2383.0,2510.0,0.0
4147413000,0.010267892963170986,97390.96459096459,2314.0,2035.0,2035.0,1221.0,336.0,64.0,-16088.0,834.0,-332.0,-15.0,6392.0,-4567.0,-23352.0,32768.0,5437952.0,2382.0,2510.0,0.0
4147669000,0.010267892963170986,97390.96459096459,2319.0,2036.0,2038.0,1222.0,296.0,92.0,-16120.0,851.0,-342.0,-17.0,6373.0,-4558.0,-23354.0,32768.0,5437440.0,2382.0,2510.0,0.0
4147925000,0.010267892963170986,97390.96459096459,2322.0,2036.0,2037.0,1220.0,292.0,76.0,-16096.0,852.0,-338.0,-24.0,6383.0,-4559.0,-23352.0,32768.0,5437440.0,2388.0,2511.0,0.0
4148181000,0.010267892963170986,97390.96459096459,2319.0,2035.0,2038.0,1222.0,316.0,48.0,-16072.0,855.0,-330.0,-31.0,6393.0,-4555.0,-23358.0,32768.0,5437952.0,2384.0,2509.0,0.0
4148437000,0.010267892963170986,97390.96459096459,2318.0,2036.0,2036.0,1220.0,304.0,72.0,-16124.0,847.0,-346.0,-39.0,6386.0,-4567.0,-23352.0,32768.0,5437952.0,2382.0,2510.0,0.0
4148693000,0.010267892963170986,97390.96459096459,2299.0,2037.0,2036.0,1220.0,320.0,76.0,-16124.0,818.0,-332.0,-28.0,6386.0,-4567.0,-23352.0,32768.0,5438464.0,2374.0,2508.0,0.0
4148949000,0.010267892963170986,97390.96459096459,2316.0,2037.0,2038.0,1220.0,292.0,88.0,-16068.0,849.0,-345.0,-16.0,6383.0,-4562.0,-23353.0,32768.0,5438464.0,2385.0,2511.0,0.0
4149205000,0.010267892963170986,97390.96459096459,2319.0,2035.0,2036.0,1221.0,276.0,96.0,-16060.0,837.0,-345.0,-36.0,6381.0,-4558.0,-23352.0,32768.0,5437952.0,2383.0,2510.0,0.0
4149461000,0.010267892963170986,97390.96459096459,2324.0,2035.0,2036.0,1221.0,268.0,84.0,-16104.0,828.0,-331.0,-18.0,6386.0,-4561.0,-23353.0,32768.0,5437952.0,2388.0,2511.0,0.0
4149717000,0.010267892963170986,97390.96459096459,2322.0,2035.0,2036.0,1221.0,284.0,36.0,-16104.0,830.0,-336.0,-40.0,6364.0,-4559.0,-23354.0,32768.0,5437952.0,2384.0,2510.0,0.0
4149973000,0.010267892963170986,97390.96459096459,2320.0,2036.0,2038.0,1222.0,316.0,80.0,-16072.0,847.0,-331.0,-24.0,6364.0,-4559.0,-23354.0,32768.0,5437952.0,2383.0,2510.0,0.0
4150229000,0.010267892963170986,97390.96459096459,2321.0,2036.0,2037.0,1222.0,284.0,88.0,-16068.0,857.0,-342.0,-24.0,6384.0,-4560.0,-23361.0,32768.0,5437696.0,2382.0,2510.0,0.0
4150485000,0.010267892963170986,97390.96459096459,2317.0,2036.0,2035.0,1221.0,272.0,64.0,-16064.0,852.0,-336.0,-20.0,6387.0,-4553.0,-23351.0,32768.0,5437696.0,2382.0,2510.0,0.0
4150741000,0.010267892963170986,97390.96459096459,2315.0,2037.0,2037.0,1220.0,304.0,84.0,-16112.0,846.0,-333.0,-30.0,6369.0,-4562.0,-23359.0,32768.0,5437952.0,2382.0,2510.0,0.0
4150997000,0.010267892963170986,97390.96459096459,2315.0,2036.0,2037.0,1222.0,272.0,60.0,-16092.0,839.0,-335.0,-29.0,6392.0,-4556.0,-23354.0,32768.0,5437952.0,2381.0,2510.0,0.0
4151253000,0.010267892963170986,97390.96459096459,2311.0,2036.0,2035.0,1220.0,304.0,88.0,-16112.0,830.0,-338.0,-18.0,6392.0,-4556.0,-23354.0,32768.0,5438464.0,2381.0,2509.0,0.0
4151509000,0.010267892963170986,97390.96459096459,2247.0,2035.0,2035.0,1222.0,328.0,44.0,-16104.0,852.0,-344.0,-21.0,6387.0,-4558.0,-23356.0,32768.0,5438464.0,2346.0,2494.0,0.0
4151765000,0.010267892963170986,97390.96459096459,2248.0,2037.0,2037.0,1220.0,284.0,32.0,-16068.0,837.0,-344.0,-44.0,6382.0,-4557.0,-23359.0,32768.0,5438464.0,2365.0,2510.0,0.0
4152021000,0.010267892963170986,97390.96459096459,2175.0,2035.0,2038.0,1220.0,280.0,60.0,-16092.0,826.0,-335.0,-35.0,6377.0,-4558.0,-23358.0,32768.0,5438464.0,2329.0,2490.0,0.0
4152277000,0.010267892963170986,97390.96459096459,2189.0,2036.0,2037.0,1223.0,352.0,68.0,-16096.0,866.0,-337.0,-31.0,6376.0,-4553.0,-23352.0,32768.0,5437952.0,2356.0,2509.0,0.0
4152533000,0.010267892963170986,97390.96459096459,2158.0,2035.0,2035.0,1221.0,336.0,48.0,-16064.0,872.0,-327.0,-48.0,6376.0,-4553.0,-23352.0,32768.0,5437952.0,2335.0,2494.0,0.0
4152789000,0.010267892963170986,97390.96459096459,2207.0,2035.0,2036.0,1221.0,320.0,32.0,-16080.0,848.0,-327.0,-33.0,6373.0,-4559.0,-23349.0,32768.0,5437952.0,2367.0,2511.0,0.0
4153045000,0.010267892963170986,97390.96459096459,2256.0,2036.0,2036.0,1224.0,320.0,36.0,-16076.0,850.0,-348.0,-31.0,6377.0,-4557.0,-23354.0,32768.0,5437952.0,2381.0,2511.0,0.0
4153301000,0.010267892963170986,97390.96459096459,2280.0,2035.0,2036.0,1221.0,336.0,64.0,-16092.0,844.0,-340.0,-34.0,6374.0,-4558.0,-23357.0,32768.0,5437952.0,2381.0,2509.0,0.0
4153557000,0.010267892963170986,97390.96459096459,2296.0,2036.0,2037.0,1221.0,304.0,60.0,-16068.0,831.0,-330.0,-26.0,6374.0,-4558.0,-23357.0,32768.0,5437952.0,2381.0,2510.0,0.0
4153813000,0.010267892963170986,97390.96459096459,2302.0,2036.0,2036.0,1223.0,340.0,60.0,-16056.0,845.0,-348.0,-36.0,6386.0,-4561.0,-23358.0,32768.0,5437952.0,2381.0,2510.0,0.0
4154069000,0.010267892963170986,97390.96459096459,2316.0,2036.0,2038.0,1222.0,332.0,60.0,-16028.0,864.0,-331.0,-24.0,6390.0,-4566.0,-23359.0,32768.0,5437952.0,2388.0,2511.0,0.0
4154325000,0.010267892963170986,97390.96459096459,2316.0,2034.0,2035.0,1222.0,360.0,56.0,-16080.0,821.0,-329.0,-27.0,6385.0,-4563.0,-23350.0,32768.0,5438208.0,2384.0,2510.0,0.0
4154581000,0.010267892963170986,97390.96459096459,2318.0,2035.0,2036.0,1223.0,324.0,20.0,-16084.0,827.0,-335.0,-19.0,6386.0,-4566.0,-23351.0,32768.0,5438208.0,2383.0,2510.0,0.0
4154837000,0.010267892963170986,97390.96459096459,2317.0,2035.0,2037.0,1220.0,332.0,52.0,-16076.0,830.0,-331.0,-18.0,6386.0,-4566.0,-23351.0,32768.0,5438208.0,2381.0,2509.0,0.0
4155093000,0.010267892963170986,97390.96459096459,2323.0,2037.0,2037.0,1221.0,300.0,52.0,-16060.0,857.0,-322.0,-21.0,6383.0,-4563.0,-23360.0,32768.0,5438208.0,2388.0,2511.0,0.0
4155349000,0.01026809893482578,97389.01098901099,2319.0,2037.0,2037.0,1222.0,352.0,96.0,-16052.0,838.0,-343.0,-36.0,6391.0,-4558.0,-23352.0,32768.0,5437696.0,2384.0,2510.0,0.0
4155605000,0.010267892963170986,97390.96459096459,2256.0,2035.0,2037.0,1223.0,292.0,76.0,-16076.0,859.0,-335.0,-24.0,6378.0,-4551.0,-23356.0,32768.0,5437696.0,2347.0,2494.0,0.0
4155861000,0.010267892963170986,97390.96459096459,2250.0,2035.0,2037.0,1223.0,300.0,48.0,-16080.0,858.0,-336.0,-6.0,6381.0,-4562.0,-23355.0,32768.0,5438208.0,2366.0,2510.0,0.0
4156117000,0.010267892963170986,97390.96459096459,2204.0,2035.0,2036.0,1222.0,308.0,40.0,-16068.0,858.0,-344.0,-27.0,6381.0,-4562.0,-23355.0,32768.0,5438208.0,2341.0,2496.0,0.0
4156373000,0.010267892963170986,97390.96459096459,2218.0,2036.0,2038.0,1219.0,308.0,52.0,-16104.0,857.0,-334.0,-27.0,6379.0,-4560.0,-23354.0,32768.0,5437952.0,2362.0,2509.0,0.0
4156629000,0.010267892963170986,97390.96459096459,2186.0,2036.0,2036.0,1220.0,328.0,76.0,-16076.0,828.0,-313.0,-12.0,6384.0,-4561.0,-23352.0,32768.0,5437952.0,2344.0,2495.0,0.0
4156885000,0.010267892963170986,97390.96459096459,2225.0,2036.0,2035.0,1222.0,300.0,52.0,-16064.0,838.0,-346.0,-25.0,6378.0,-4563.0,-23355.0,32768.0,5437696.0,2370.0,2511.0,0.0
4157141000,0.010267892963170986,97390.96459096459,2254.0,2034.0,2039.0,1219.0,316.0,20.0,-16068.0,860.0,-326.0,-17.0,6375.0,-4557.0,-23355.0,32768.0,5437696.0,2377.0,2510.0,0.0
4157397000,0.010267892963170986,97390.96459096459,2278.0,2036.0,2038.0,1221.0,352.0,32.0,-16092.0,839.0,-346.0,-14.0,6375.0,-4557.0,-23355.0,32768.0,5437696.0,2380.0,2510.0,0.0
4157653000,0.010267892963170986,97390.96459096459,2289.0,2036.0,2036.0,1222.0,332.0,44.0,-16092.0,833.0,-331.0,-13.0,6384.0,-4557.0,-23350.0,32768.0,5437696.0,2380.0,2510.0,0.0
4157909000,0.010267892963170986,97390.96459096459,2298.0,2035.0,2037.0,1219.0,324.0,76.0,-16016.0,835.0,-336.0,-4.0,6390.0,-4559.0,-23353.0,32768.0,5438208.0,2381.0,2510.0,0.0
4158165000,0.010267892963170986,97390.96459096459,2320.0,2035.0,2037.0,1222.0,312.0,64.0,-16052.0,834.0,-341.0,-19.0,6389.0,-4555.0,-23359.0,32768.0,5438208.0,2387.0,2511.0,0.0
4158421000,0.010267892963170986,97390.96459096459,2318.0,2037.0,2038.0,1222.0,300.0,60.0,-16096.0,849.0,-340.0,-21.0,6389.0,-4555.0,-23359.0,32768.0,5437696.0,2383.0,2509.0,0.0
4158677000,0.010267892963170986,97390.96459096459,2266.0,2034.0,2036.0,1221.0,320.0,84.0,-16120.0,829.0,-349.0,-36.0,6393.0,-4564.0,-23351.0,32768.0,5437696.0,2354.0,2495.0,0.0
4158933000,0.010267892963170986,97390.96459096459,2267.0,2035.0,2035.0,1222.0,328.0,100.0,-16032.0,839.0,-321.0,-25.0,6389.0,-4557.0,-23351.0,32768.0,5438208.0,2369.0,2510.0,0.0
4159189000,0.010267892963170986,97390.96459096459,2287.0,2037.0,2038.0,1220.0,308.0,60.0,-16088.0,845.0,-345.0,-33.0,6383.0,-4561.0,-23356.0,32768.0,5438208.0,2382.0,2511.0,0.0
4159445000,0.010267892963170986,97390.96459096459,2300.0,2035.0,2035.0,1222.0,304.0,48.0,-16040.0,850.0,-332.0,-24.0,6382.0,-4556.0,-23355.0,32768.0,5437440.0,2381.0,2509.0,0.0
4159701000,0.010267892963170986,97390.96459096459,2235.0,2035.0,2038.0,1219.0,324.0,4.0,-16144.0,862.0,-360.0,-18.0,6382.0,-4556.0,-23355.0,32768.0,5437440.0,2346.0,2494.0,0.0
4159957000,0.010267892963170986,97390.96459096459,2258.0,2035.0,2036.0,1220.0,320.0,100.0,-16152.0,836.0,-330.0,-10.0,6371.0,-4559.0,-23354.0,32768.0,5437696.0,2371.0,2511.0,0.0
4160213000,0.010267892963170986,97390.96459096459,2290.0,2035.0,2036.0,1219.0,308.0,24.0,-16080.0,836.0,-332.0,-19.0,6380.0,-4557.0,-23356.0,32768.0,5437696.0,2383.0,2511.0,0.0
4160469000,0.010267892963170986,97390.96459096459,2299.0,2036.0,2035.0,1221.0,320.0,76.0,-16076.0,851.0,-334.0,-25.0,6381.0,-4551.0,-23354.0,32768.0,5437440.0,2382.0,2510.0,0.0
4160725000,0.010267892963170986,97390.96459096459,2306.0,2037.0,2036.0,1220.0,324.0,36.0,-16140.0,844.0,-337.0,-27.0,6391.0,-4556.0,-23355.0,32768.0,5437440.0,2381.0,2509.0,0.0
4160981000,0.010267892963170986,97390.96459096459,2307.0,2036.0,2038.0,1219.0,288.0,56.0,-16132.0,850.0,-329.0,-19.0,6391.0,-4556.0,-23355.0,32768.0,5438208.0,2381.0,2510.0,0.0
4161237000,0.010267892963170986,97390.96459096459,2319.0,2036.0,2038.0,1220.0,284.0,52.0,-16080.0,851.0,-336.0,-28.0,6386.0,-4558.0,-23353.0,32768.0,5438208.0,2388.0,2511.0,0.0
4161493000,0.010267892963170986,97390.96459096459,2319.0,2036.0,2036.0,1222.0,300.0,60.0,-16072.0,849.0,-319.0,-22.0,6387.0,-4556.0,-23359.0,32768.0,5437952.0,2384.0,2510.0,0.0
4161749000,0.010267892963170986,97390.96459096459,2319.0,2034.0,2036.0,1221.0,284.0,48.0,-16040.0,837.0,-327.0,-22.0,6392.0,-4559.0,-23349.0,32768.0,5437952.0,2383.0,2510.0,0.0
4162005000,0.010267892963170986,97390.96459096459,2317.0,2037.0,2037.0,1220.0,324.0,44.0,-16100.0,847.0,-334.0,-37.0,6378.0,-4558.0,-23354.0,32768.0,5437440.0,2381.0,2509.0,0.0
4162261000,0.010267892963170986,97390.96459096459,2323.0,2037.0,2037.0,1222.0,284.0,76.0,-16132.0,842.0,-331.0,-24.0,6378.0,-4558.0,-23354.0,32768.0,5437440.0,2388.0,2511.0,0.0
4162517000,0.010267892963170986,97390.96459096459,2320.0,2035.0,2037.0,1221.0,284.0,60.0,-16060.0,844.0,-337.0,-29.0,6383.0,-4556.0,-23359.0,32768.0,5438208.0,2384.0,2510.0,0.0
4162773000,0.010267892963170986,97390.96459096459,2332.0,2034.0,2036.0,1220.0,268.0,56.0,-16084.0,851.0,-364.0,-32.0,6382.0,-4562.0,-23354.0,32768.0,5438208.0,2389.0,2511.0,0.0
4163029000,0.010267892963170986,97390.96459096459,2328.0,2036.0,2036.0,1222.0,308.0,104.0,-16136.0,825.0,-344.0,-23.0,6385.0,-4557.0,-23360.0,32768.0,5438208.0,2385.0,2510.0,0.0
4163285000,0.010267892963170986,97390.96459096459,2327.0,2035.0,2036.0,1223.0,296.0,56.0,-16140.0,845.0,-321.0,-36.0,6385.0,-4557.0,-23360.0,32768.0,5438208.0,2383.0,2510.0,0.0
4163541000,0.010267892963170986,97390.96459096459,2322.0,2036.0,2036.0,1220.0,284.0,36.0,-16108.0,840.0,-353.0,-35.0,6374.0,-4557.0,-23351.0,32768.0,5437952.0,2382.0,2510.0,0.0
4163797000,0.010267892963170986,97390.96459096459,2251.0,2035.0,2037.0,1221.0,296.0,96.0,-16060.0,849.0,-356.0,-30.0,6384.0,-4564.0,-23355.0,32768.0,5437952.0,2348.0,2496.0,0.0
4164053000,0.010267892963170986,97390.96459096459,2268.0,2036.0,2036.0,1223.0,304.0,48.0,-16052.0,853.0,-336.0,-17.0,6379.0,-4554.0,-23356.0,32768.0,5437952.0,2373.0,2511.0,0.0
4164309000,0.010267892963170986,97390.96459096459,2279.0,2036.0,2036.0,1221.0,288.0,80.0,-16064.0,845.0,-339.0,-26.0,6381.0,-4560.0,-23350.0,32768.0,5437952.0,2378.0,2510.0,0.0
4164565000,0.010267892963170986,97390.96459096459,2289.0,2036.0,2037.0,1220.0,300.0,92.0,-16140.0,845.0,-339.0,-26.0,6381.0,-4560.0,-23350.0,32768.0,5438208.0,2380.0,2510.0,0.0
4164821000,0.010267892963170986,97390.96459096459,2297.0,2037.0,2037.0,1221.0,328.0,52.0,-16104.0,855.0,-333.0,-15.0,6386.0,-4557.0,-23361.0,32768.0,5438208.0,2380.0,2510.0,0.0
4165077000,0.010267892963170986,97390.96459096459,2315.0,2035.0,2036.0,1219.0,296.0,64.0,-16120.0,837.0,-342.0,-29.0,6391.0,-4561.0,-23354.0,32768.0,5437440.0,2387.0,2511.0,0.0
4165333000,0.010267892963170986,97390.96459096459,2330.0,2036.0,2036.0,1219.0,316.0,64.0,-16132.0,840.0,-328.0,-12.0,6385.0,-4558.0,-23353.0,32768.0,5437440.0,2390.0,2511.0,0.0
4165589000,0.010267892963170986,97390.96459096459,2321.0,2036.0,2036.0,1223.0,244.0,72.0,-16100.0,842.0,-339.0,-33.0,6382.0,-4561.0,-23353.0,32768.0,5437952.0,2384.0,2509.0,0.0
4165845000,0.010267892963170986,97390.96459096459,2322.0,2037.0,2038.0,1222.0,304.0,48.0,-16128.0,855.0,-348.0,-22.0,6382.0,-4561.0,-23353.0,32768.0,5437952.0,2383.0,2510.0,0.0
4166101000,0.010267892963170986,97390.96459096459,2322.0,2035.0,2036.0,1222.0,284.0,92.0,-16072.0,845.0,-345.0,-15.0,6374.0,-4562.0,-23353.0,32768.0,5437952.0,2382.0,2510.0,0.0
4166357000,0.010267892963170986,97390.96459096459,2323.0,2035.0,2035.0,1222.0,284.0,72.0,-16100.0,851.0,-334.0,-33.0,6381.0,-4560.0,-23353.0,32768.0,5437952.0,2388.0,2511.0,0.0
4166613000,0.010267892963170986,97390.96459096459,2326.0,2035.0,2036.0,1220.0,320.0,52.0,-16096.0,849.0,-337.0,-32.0,6380.0,-4562.0,-23350.0,32768.0,5438720.0,2383.0,2509.0,0.0
4166869000,0.010267892963170986,97390.96459096459,2323.0,2036.0,2037.0,1220.0,304.0,68.0,-16120.0,846.0,-341.0,-23.0,6379.0,-4553.0,-23353.0,32768.0,5438720.0,2383.0,2510.0,0.0
4167125000,0.010267892963170986,97390.96459096459,2326.0,2035.0,2039.0,1222.0,308.0,104.0,-16056.0,837.0,-345.0,-7.0,6379.0,-4553.0,-23353.0,32768.0,5437952.0,2388.0,2511.0,0.0
4167381000,0.010267892963170986,97390.96459096459,2343.0,2035.0,2035.0,1225.0,300.0,92.0,-16084.0,850.0,-319.0,-28.0,6380.0,-4557.0,-23354.0,32768.0,5437952.0,2391.0,2511.0,0.0
4167637000,0.010267892963170986,97390.96459096459,2334.0,2036.0,2037.0,1220.0,300.0,76.0,-16084.0,843.0,-340.0,0.0,6388.0,-4556.0,-23352.0,32768.0,5437696.0,2386.0,2510.0,0.0
4167893000,0.010267892963170986,97390.96459096459,2267.0,2036.0,2037.0,1223.0,292.0,72.0,-16112.0,847.0,-336.0,-34.0,6383.0,-4554.0,-23348.0,32768.0,5437696.0,2350.0,2496.0,0.0
4168149000,0.010267892963170986,97390.96459096459,2257.0,2036.0,2036.0,1221.0,300.0,68.0,-16096.0,851.0,-332.0,-15.0,6383.0,-4554.0,-23356.0,32768.0,5437696.0,2366.0,2509.0,0.0
4168405000,0.010267892963170986,97390.96459096459,2283.0,2034.0,2037.0,1221.0,296.0,108.0,-16076.0,852.0,-350.0,-28.0,6383.0,-4554.0,-23356.0,32768.0,5437696.0,2381.0,2511.0,0.0
4168661000,0.010267892963170986,97390.96459096459,2213.0,2035.0,2035.0,1222.0,288.0,52.0,-16080.0,827.0,-339.0,-18.0,6391.0,-4556.0,-23358.0,32768.0,5438464.0,2335.0,2489.0,0.0
4168917000,0.010267892963170986,97390.96459096459,2234.0,2036.0,2038.0,1221.0,280.0,96.0,-16100.0,855.0,-338.0,-36.0,6384.0,-4556.0,-23353.0,32768.0,5438464.0,2367.0,2510.0,0.0
4169173000,0.010267892963170986,97390.96459096459,2262.0,2036.0,2037.0,1221.0,288.0,40.0,-16080.0,851.0,-354.0,-32.0,6390.0,-4559.0,-23357.0,32768.0,5438208.0,2375.0,2510.0,0.0
4169429000,0.010267892963170986,97390.96459096459,2279.0,2036.0,2036.0,1221.0,300.0,96.0,-16076.0,842.0,-340.0,-28.0,6390.0,-4559.0,-23357.0,32768.0,5438208.0,2378.0,2510.0,0.0
4169685000,0.010267892963170986,97390.96459096459,2293.0,2035.0,2037.0,1225.0,304.0,60.0,-16076.0,830.0,-343.0,-40.0,6384.0,-4567.0,-23355.0,32768.0,5438464.0,2379.0,2509.0,0.0
4169941000,0.010267892963170986,97390.96459096459,2300.0,2036.0,2038.0,1221.0,292.0,60.0,-16096.0,852.0,-331.0,5.0,6383.0,-4551.0,-23357.0,32768.0,5438464.0,2380.0,2510.0,0.0
4170197000,0.010267892963170986,97390.96459096459,2311.0,2035.0,2037.0,1222.0,300.0,80.0,-16084.0,819.0,-325.0,-17.0,6386.0,-4561.0,-23358.0,32768.0,5437696.0,2388.0,2511.0,0.0
4170453000,0.010267892963170986,97390.96459096459,2318.0,2035.0,2035.0,1223.0,268.0,64.0,-16100.0,851.0,-344.0,-27.0,6381.0,-4556.0,-23357.0,32768.0,5437696.0,2383.0,2509.0,0.0
4170709000,0.010267892963170986,97390.96459096459,2316.0,2035.0,2036.0,1221.0,288.0,68.0,-16124.0,815.0,-345.0,-21.0,6381.0,-4556.0,-23357.0,32768.0,5437440.0,2381.0,2509.0,0.0
4170965000,0.01026809893482578,97389.01098901099,2322.0,2036.0,2036.0,1223.0,312.0,20.0,-16096.0,838.0,-353.0,-5.0,6377.0,-4559.0,-23356.0,32768.0,5437440.0,2388.0,2511.0,0.0
4171221000,0.010267892963170986,97390.96459096459,2321.0,2037.0,2035.0,1221.0,268.0,56.0,-16100.0,851.0,-341.0,-25.0,6383.0,-4563.0,-23362.0,32768.0,5437952.0,2384.0,2510.0,0.0
4171477000,0.010267892963170986,97390.96459096459,2329.0,2035.0,2038.0,1222.0,292.0,36.0,-16064.0,826.0,-325.0,-18.0,6394.0,-4562.0,-23355.0,32768.0,5437952.0,2389.0,2511.0,0.0
4171733000,0.010267892963170986,97390.96459096459,2313.0,2035.0,2038.0,1219.0,280.0,92.0,-16072.0,830.0,-357.0,-16.0,6388.0,-4557.0,-23359.0,32768.0,5437952.0,2377.0,2508.0,0.0
4171989000,0.010267892963170986,97390.96459096459,2314.0,2036.0,2035.0,1221.0,304.0,48.0,-16108.0,840.0,-350.0,-46.0,6388.0,-4557.0,-23359.0,32768.0,5437952.0,2379.0,2510.0,0.0
4172245000,0.010267892963170986,97390.96459096459,2307.0,2035.0,2035.0,1221.0,272.0,80.0,-16124.0,865.0,-346.0,-25.0,6388.0,-4558.0,-23362.0,32768.0,5437952.0,2380.0,2509.0,0.0
4172501000,0.010267892963170986,97390.96459096459,2324.0,2036.0,2035.0,1222.0,280.0,76.0,-16080.0,812.0,-334.0,-27.0,6387.0,-4566.0,-23355.0,32768.0,5437952.0,2387.0,2511.0,0.0
4172757000,0.010267892963170986,97390.96459096459,2319.0,2036.0,2036.0,1220.0,328.0,60.0,-16080.0,838.0,-346.0,-24.0,6381.0,-4557.0,-23357.0,32768.0,5437952.0,2384.0,2510.0,0.0
4173013000,0.010267892963170986,97390.96459096459,2264.0,2035.0,2039.0,1222.0,324.0,56.0,-16112.0,831.0,-330.0,-39.0,6380.0,-4562.0,-23353.0,32768.0,5437952.0,2356.0,2497.0,0.0
4173269000,0.010267892963170986,97390.96459096459,2269.0,2035.0,2037.0,1219.0,320.0,80.0,-16096.0,824.0,-349.0,-24.0,6380.0,-4562.0,-23353.0,32768.0,5438208.0,2370.0,2510.0,0.0
4173525000,0.010267892963170986,97390.96459096459,2294.0,2036.0,2039.0,1222.0,304.0,40.0,-16140.0,847.0,-337.0,-35.0,6383.0,-4564.0,-23365.0,32768.0,5438208.0,2383.0,2511.0,0.0
4173781000,0.010267892963170986,97390.96459096459,2311.0,2035.0,2037.0,1222.0,292.0,44.0,-16084.0,843.0,-352.0,-39.0,6386.0,-4561.0,-23360.0,32768.0,5438208.0,2388.0,2511.0,0.0
4174037000,0.010267892963170986,97390.96459096459,2268.0,2036.0,2037.0,1221.0,304.0,40.0,-16088.0,855.0,-329.0,-14.0,6380.0,-4564.0,-23365.0,32768.0,5438208.0,2358.0,2497.0,0.0
4174293000,0.010267892963170986,97390.96459096459,2265.0,2036.0,2039.0,1222.0,296.0,76.0,-16136.0,850.0,-352.0,-21.0,6380.0,-4564.0,-23365.0,32768.0,5437696.0,2370.0,2509.0,0.0
4174549000,0.010267892963170986,97390.96459096459,2278.0,2036.0,2038.0,1222.0,312.0,80.0,-16096.0,843.0,-345.0,-41.0,6389.0,-4560.0,-23357.0,32768.0,5437696.0,2376.0,2510.0,0.0
4174805000,0.010267892963170986,97390.96459096459,2292.0,2036.0,2039.0,1219.0,320.0,60.0,-16072.0,850.0,-327.0,-14.0,6398.0,-4561.0,-23366.0,32768.0,5438208.0,2379.0,2510.0,0.0
4175061000,0.010267892963170986,97390.96459096459,2297.0,2034.0,2037.0,1222.0,324.0,84.0,-16076.0,835.0,-334.0,-31.0,6390.0,-4558.0,-23364.0,32768.0,5438208.0,2380.0,2510.0,0.0
4175317000,0.010267892963170986,97390.96459096459,2304.0,2034.0,2038.0,1223.0,304.0,44.0,-16096.0,850.0,-339.0,-35.0,6390.0,-4561.0,-23359.0,32768.0,5438464.0,2381.0,2510.0,0.0
4175573000,0.010267892963170986,97390.96459096459,2275.0,2036.0,2036.0,1221.0,336.0,60.0,-16076.0,851.0,-343.0,-20.0,6390.0,-4561.0,-23359.0,32768.0,5438464.0,2363.0,2501.0,0.0
4175829000,0.010267892963170986,97390.96459096459,2281.0,2037.0,2037.0,1222.0,292.0,48.0,-16096.0,839.0,-349.0,-32.0,6392.0,-4562.0,-23366.0,32768.0,5438208.0,2373.0,2510.0,0.0
4176085000,0.010267892963170986,97390.96459096459,2236.0,2036.0,2036.0,1220.0,264.0,60.0,-16076.0,856.0,-337.0,-5.0,6391.0,-4567.0,-23361.0,32768.0,5438208.0,2352.0,2498.0,0.0
4176341000,0.010267892963170986,97390.96459096459,2245.0,2035.0,2038.0,1220.0,304.0,100.0,-16092.0,849.0,-336.0,-10.0,6384.0,-4565.0,-23365.0,32768.0,5438208.0,2368.0,2510.0,0.0
4176597000,0.010267892963170986,97390.96459096459,2276.0,2035.0,2037.0,1218.0,268.0,48.0,-16108.0,837.0,-333.0,-20.0,6384.0,-4564.0,-23358.0,32768.0,5438208.0,2381.0,2511.0,0.0
4176853000,0.010267892963170986,97390.96459096459,2285.0,2034.0,2038.0,1219.0,280.0,72.0,-16084.0,855.0,-326.0,-37.0,6384.0,-4564.0,-23358.0,32768.0,5438208.0,2380.0,2509.0,0.0
4177109000,0.010267892963170986,97390.96459096459,2254.0,2037.0,2038.0,1221.0,252.0,72.0,-16044.0,833.0,-361.0,-29.0,6384.0,-4561.0,-23368.0,32768.0,5438208.0,2355.0,2498.0,0.0
4177365000,0.010267892963170986,97390.96459096459,2268.0,2035.0,2037.0,1220.0,296.0,84.0,-16052.0,845.0,-334.0,-35.0,6388.0,-4565.0,-23365.0,32768.0,5438464.0,2376.0,2511.0,0.0
4177621000,0.010267892963170986,97390.96459096459,2295.0,2036.0,2036.0,1222.0,312.0,44.0,-16060.0,852.0,-335.0,-44.0,6379.0,-4561.0,-23364.0,32768.0,5438464.0,2385.0,2511.0,0.0
4177877000,0.010267892963170986,97390.96459096459,2290.0,2035.0,2035.0,1224.0,296.0,68.0,-16100.0,856.0,-338.0,-41.0,6390.0,-4555.0,-23365.0,32768.0,5437440.0,2376.0,2508.0,0.0
4178133000,0.010267892963170986,97390.96459096459,2299.0,2034.0,2035.0,1221.0,284.0,84.0,-16120.0,849.0,-343.0,-18.0,6390.0,-4555.0,-23365.0,32768.0,5437440.0,2379.0,2510.0,0.0
4178389000,0.010267892963170986,97390.96459096459,2307.0,2035.0,2038.0,1220.0,348.0,64.0,-16084.0,846.0,-334.0,-31.0,6393.0,-4559.0,-23360.0,32768.0,5438208.0,2381.0,2510.0,0.0
4178645000,0.010267892963170986,97390.96459096459,2309.0,2035.0,2036.0,1220.0,296.0,52.0,-16044.0,836.0,-337.0,-32.0,6392.0,-4562.0,-23363.0,32768.0,5438208.0,2381.0,2510.0,0.0
4178901000,0.010267892963170986,97390.96459096459,2304.0,2034.0,2038.0,1221.0,300.0,72.0,-16084.0,838.0,-333.0,-12.0,6395.0,-4561.0,-23364.0,32768.0,5438208.0,2380.0,2509.0,0.0
4179157000,0.010267892963170986,97390.96459096459,2308.0,2035.0,2036.0,1220.0,316.0,52.0,-16112.0,858.0,-334.0,-19.0,6391.0,-4566.0,-23369.0,32768.0,5438208.0,2381.0,2510.0,0.0
4179413000,0.010267892963170986,97390.96459096459,2305.0,2036.0,2036.0,1222.0,300.0,88.0,-16092.0,869.0,-332.0,-14.0,6391.0,-4566.0,-23369.0,32768.0,5438464.0,2380.0,2509.0,0.0
4179669000,0.010267892963170986,97390.96459096459,2219.0,2034.0,2039.0,1222.0,312.0,36.0,-16080.0,841.0,-337.0,-21.0,6392.0,-4566.0,-23362.0,32768.0,5438464.0,2336.0,2490.0,0.0
4179925000,0.010267892963170986,97390.96459096459,2225.0,2036.0,2038.0,1222.0,280.0,52.0,-16088.0,835.0,-349.0,-29.0,6382.0,-4562.0,-23355.0,32768.0,5438720.0,2361.0,2510.0,0.0
4180181000,0.010267892963170986,97390.96459096459,2245.0,2036.0,2038.0,1220.0,316.0,68.0,-16096.0,844.0,-327.0,-25.0,6390.0,-4565.0,-23358.0,32768.0,5438720.0,2372.0,2510.0,0.0
4180437000,0.010267892963170986,97390.96459096459,2264.0,2037.0,2037.0,1220.0,328.0,92.0,-16100.0,860.0,-340.0,-24.0,6390.0,-4565.0,-23358.0,32768.0,5437952.0,2376.0,2509.0,0.0
4180693000,0.010267892963170986,97390.96459096459,2285.0,2035.0,2038.0,1221.0,276.0,68.0,-16080.0,839.0,-335.0,-30.0,6386.0,-4564.0,-23363.0,32768.0,5437952.0,2379.0,2510.0,0.0
4180949000,0.010267892963170986,97390.96459096459,2306.0,2036.0,2036.0,1222.0,296.0,80.0,-16076.0,850.0,-339.0,-24.0,6387.0,-4560.0,-23361.0,32768.0,5438208.0,2386.0,2511.0,0.0
4181205000,0.010267892963170986,97390.96459096459,2280.0,2035.0,2036.0,1222.0,312.0,20.0,-16096.0,845.0,-346.0,-45.0,6371.0,-4564.0,-23358.0,32768.0,5438208.0,2365.0,2499.0,0.0
4181461000,0.010267892963170986,97390.96459096459,2279.0,2037.0,2038.0,1220.0,340.0,28.0,-16064.0,845.0,-346.0,-45.0,6388.0,-4559.0,-23361.0,32295.0,5438208.0,2373.0,2510.0,0.0
4181717000,0.010267892963170986,97390.96459096459,2289.0,2036.0,2034.0,1222.0,276.0,16.0,-16084.0,836.0,-343.0,-21.0,6388.0,-4559.0,-23361.0,32295.0,5438208.0,2378.0,2510.0,0.0
4181973000,0.010267892963170986,97390.96459096459,2294.0,2035.0,2036.0,1220.0,300.0,36.0,-16072.0,842.0,-346.0,-36.0,6388.0,-4560.0,-23360.0,32295.0,5438208.0,2380.0,2510.0,0.0
4182229000,0.010267892963170986,97390.96459096459,2303.0,2035.0,2038.0,1220.0,348.0,56.0,-16052.0,857.0,-342.0,-16.0,6392.0,-4562.0,-23360.0,32295.0,5438208.0,2381.0,2510.0,0.0
4182485000,0.010267892963170986,97390.96459096459,2308.0,2034.0,2037.0,1222.0,332.0,68.0,-16112.0,848.0,-333.0,-15.0,6382.0,-4562.0,-23359.0,32295.0,5437952.0,2381.0,2510.0,0.0
4182741000,0.010267892963170986,97390.96459096459,2307.0,2035.0,2036.0,1223.0,308.0,48.0,-16116.0,854.0,-336.0,-24.0,6394.0,-4561.0,-23364.0,32295.0,5437952.0,2381.0,2510.0,0.0
4182997000,0.010267892963170986,97390.96459096459,2306.0,2035.0,2037.0,1223.0,328.0,52.0,-16060.0,840.0,-348.0,-31.0,6394.0,-4561.0,-23364.0,32295.0,5438208.0,2380.0,2509.0,0.0
4183253000,0.010267892963170986,97390.96459096459,2322.0,2037.0,2037.0,1223.0,336.0,48.0,-16068.0,848.0,-330.0,-13.0,6385.0,-4559.0,-23365.0,32295.0,5438208.0,2387.0,2511.0,0.0
4183509000,0.010267892963170986,97390.96459096459,2319.0,2036.0,2037.0,1223.0,288.0,64.0,-16068.0,854.0,-336.0,-22.0,6384.0,-4563.0,-23357.0,32295.0,5437952.0,2384.0,2510.0,0.0
4183765000,0.010267892963170986,97390.96459096459,2331.0,2035.0,2036.0,1222.0,328.0,60.0,-16028.0,858.0,-343.0,-38.0,6376.0,-4563.0,-23357.0,32295.0,5437952.0,2389.0,2511.0,0.0
4184021000,0.010267892963170986,97390.96459096459,2321.0,2036.0,2039.0,1219.0,308.0,20.0,-16140.0,873.0,-335.0,-24.0,6386.0,-4563.0,-23361.0,32295.0,5438464.0,2384.0,2509.0,0.0
4184277000,0.010267892963170986,97390.96459096459,2320.0,2035.0,2037.0,1222.0,308.0,40.0,-16056.0,838.0,-335.0,-41.0,6386.0,-4563.0,-23361.0,32295.0,5438464.0,2382.0,2510.0,0.0
4184533000,0.010267892963170986,97390.96459096459,2317.0,2036.0,2035.0,1222.0,336.0,64.0,-16100.0,836.0,-321.0,-31.0,6390.0,-4564.0,-23365.0,32295.0,5438464.0,2382.0,2510.0,0.0
4184789000,0.010267892963170986,97390.96459096459,2323.0,2035.0,2037.0,1223.0,324.0,44.0,-16084.0,852.0,-326.0,-30.0,6392.0,-4561.0,-23353.0,32295.0,5438464.0,2388.0,2511.0,0.0
4185045000,0.010267892963170986,97390.96459096459,2321.0,2035.0,2038.0,1221.0,320.0,52.0,-16052.0,841.0,-338.0,-2.0,6390.0,-4555.0,-23361.0,32295.0,5438464.0,2384.0,2510.0,0.0
4185301000,0.010267892963170986,97390.96459096459,2283.0,2034.0,2037.0,1221.0,320.0,32.0,-16100.0,844.0,-346.0,-26.0,6390.0,-4555.0,-23361.0,32295.0,5438464.0,2363.0,2499.0,0.0
4185557000,0.010267892963170986,97390.96459096459,2285.0,2035.0,2035.0,1222.0,300.0,36.0,-16056.0,843.0,-331.0,-33.0,6391.0,-4556.0,-23361.0,32295.0,5437952.0,2373.0,2510.0,0.0
4185813000,0.010267892963170986,97390.96459096459,2300.0,2036.0,2039.0,1223.0,320.0,32.0,-16076.0,847.0,-354.0,-21.0,6388.0,-4558.0,-23364.0,32295.0,5437952.0,2384.0,2511.0,0.0
4186069000,0.010267892963170986,97390.96459096459,2219.0,2035.0,2037.0,1223.0,308.0,20.0,-16076.0,851.0,-330.0,-28.0,6393.0,-4564.0,-23360.0,32295.0,5437440.0,2337.0,2489.0,0.0
4186325000,0.010267892963170986,97390.96459096459,2227.0,2035.0,2037.0,1220.0,288.0,28.0,-16076.0,841.0,-341.0,-27.0,6387.0,-4565.0,-23361.0,32295.0,5437440.0,2361.0,2510.0,0.0
4186581000,0.010267892963170986,97390.96459096459,2247.0,2035.0,2035.0,1225.0,332.0,24.0,-16056.0,830.0,-353.0,-15.0,6387.0,-4565.0,-23361.0,32295.0,5437440.0,2371.0,2509.0,0.0
4186837000,0.010267892963170986,97390.96459096459,2286.0,2036.0,2035.0,1223.0,320.0,40.0,-16112.0,847.0,-323.0,-24.0,6384.0,-4559.0,-23358.0,32295.0,5437440.0,2383.0,2511.0,0.0
4187093000,0.010267892963170986,97390.96459096459,2299.0,2036.0,2037.0,1222.0,308.0,32.0,-16048.0,846.0,-338.0,-22.0,6385.0,-4562.0,-23362.0,32295.0,5437952.0,2382.0,2510.0,0.0
4187349000,0.010267892963170986,97390.96459096459,2304.0,2037.0,2036.0,1221.0,292.0,72.0,-16056.0,830.0,-348.0,-45.0,6382.0,-4553.0,-23360.0,32295.0,5437952.0,2382.0,2510.0,0.0
4187605000,0.010267892963170986,97390.96459096459,2305.0,2034.0,2035.0,1220.0,304.0,76.0,-16128.0,860.0,-347.0,-48.0,6387.0,-4562.0,-23355.0,32295.0,5437952.0,2380.0,2509.0,0.0
4187861000,0.010267892963170986,97390.96459096459,2305.0,2036.0,2037.0,1221.0,304.0,48.0,-16096.0,854.0,-331.0,-18.0,6387.0,-4562.0,-23355.0,32295.0,5437952.0,2381.0,2510.0,0.0
4188117000,0.010267892963170986,97390.96459096459,2319.0,2036.0,2037.0,1220.0,320.0,48.0,-16076.0,831.0,-336.0,-20.0,6359.0,-4561.0,-23353.0,32295.0,5437952.0,2388.0,2511.0,0.0
4188373000,0.010267892963170986,97390.96459096459,2289.0,2035.0,2036.0,1224.0,328.0,72.0,-16056.0,842.0,-338.0,-30.0,6393.0,-4565.0,-23359.0,32295.0,5437952.0,2366.0,2501.0,0.0
4188629000,0.010267892963170986,97390.96459096459,2284.0,2035.0,2036.0,1221.0,312.0,76.0,-16064.0,851.0,-351.0,-26.0,6388.0,-4560.0,-23361.0,32295.0,5438720.0,2374.0,2510.0,0.0
4188885000,0.010267892963170986,97390.96459096459,2292.0,2036.0,2037.0,1220.0,296.0,20.0,-16080.0,844.0,-333.0,-29.0,6391.0,-4557.0,-23354.0,32295.0,5438720.0,2378.0,2510.0,0.0
4189141000,0.010267892963170986,97390.96459096459,2300.0,2036.0,2035.0,1222.0,308.0,60.0,-16128.0,829.0,-341.0,-50.0,6391.0,-4557.0,-23354.0,32295.0,5438464.0,2379.0,2509.0,0.0
4189397000,0.010267892963170986,97390.96459096459,2301.0,2035.0,2037.0,1223.0,288.0,28.0,-16080.0,848.0,-350.0,-36.0,6389.0,-4563.0,-23357.0,32295.0,5438464.0,2380.0,2510.0,0.0
4189653000,0.010267892963170986,97390.96459096459,2321.0,2036.0,2036.0,1221.0,304.0,68.0,-16052.0,859.0,-344.0,-11.0,6382.0,-4561.0,-23358.0,32295.0,5437952.0,2387.0,2511.0,0.0
4189909000,0.010267892963170986,97390.96459096459,2334.0,2036.0,2035.0,1220.0,300.0,120.0,-16072.0,835.0,-344.0,-17.0,6387.0,-4561.0,-23361.0,32295.0,5437952.0,2391.0,2511.0,0.0
4190165000,0.010267892963170986,97390.96459096459,2326.0,2035.0,2036.0,1219.0,316.0,48.0,-16152.0,831.0,-334.0,-41.0,6379.0,-4559.0,-23363.0,32295.0,5438464.0,2384.0,2509.0,0.0
4190421000,0.010267892963170986,97390.96459096459,2326.0,2035.0,2037.0,1220.0,304.0,68.0,-16112.0,815.0,-343.0,-22.0,6379.0,-4559.0,-23363.0,32295.0,5438464.0,2383.0,2510.0,0.0
4190677000,0.010267892963170986,97390.96459096459,2328.0,2036.0,2038.0,1223.0,268.0,56.0,-16056.0,847.0,-350.0,-31.0,6369.0,-4555.0,-23354.0,32295.0,5437952.0,2388.0,2511.0,0.0
4190933000,0.010267892963170986,97390.96459096459,2343.0,2035.0,2038.0,1222.0,272.0,80.0,-16088.0,858.0,-339.0,-32.0,6379.0,-4562.0,-23354.0,32295.0,5437952.0,2391.0,2511.0,0.0
4191189000,0.010267892963170986,97390.96459096459,2334.0,2035.0,2038.0,1221.0,308.0,60.0,-16128.0,848.0,-326.0,-10.0,6359.0,-4562.0,-23351.0,32295.0,5437952.0,2386.0,2510.0,0.0
4191445000,0.010267892963170986,97390.96459096459,2325.0,2036.0,2037.0,1219.0,324.0,60.0,-16080.0,856.0,-339.0,-35.0,6359.0,-4562.0,-23351.0,32295.0,5437952.0,2382.0,2509.0,0.0
4191701000,0.010267892963170986,97390.96459096459,2321.0,2037.0,2036.0,1223.0,276.0,72.0,-16096.0,838.0,-335.0,-19.0,6389.0,-4554.0,-23352.0,32295.0,5438720.0,2381.0,2509.0,0.0
4191957000,0.010267892963170986,97390.96459096459,2324.0,2035.0,2037.0,1224.0,324.0,124.0,-16064.0,837.0,-347.0,-32.0,6393.0,-4558.0,-23355.0,32295.0,5438720.0,2388.0,2511.0,0.0
4192213000,0.010267892963170986,97390.96459096459,2327.0,2036.0,2036.0,1221.0,280.0,68.0,-16072.0,862.0,-339.0,-37.0,6390.0,-4555.0,-23356.0,32295.0,5438464.0,2383.0,2509.0,0.0
4192469000,0.010267892963170986,97390.96459096459,2284.0,2037.0,2037.0,1220.0,328.0,36.0,-16108.0,857.0,-349.0,-24.0,6376.0,-4559.0,-23351.0,32295.0,5438464.0,2364.0,2501.0,0.0
4192725000,0.010267892963170986,97390.96459096459,2284.0,2037.0,2039.0,1221.0,304.0,80.0,-16132.0,859.0,-342.0,-36.0,6376.0,-4559.0,-23351.0,32295.0,5438464.0,2374.0,2510.0,0.0
4192981000,0.010267892963170986,97390.96459096459,2301.0,2035.0,2037.0,1224.0,296.0,76.0,-16088.0,829.0,-338.0,-21.0,6381.0,-4558.0,-23353.0,32295.0,5438464.0,2384.0,2511.0,0.0
4193237000,0.010267892963170986,97390.96459096459,2310.0,2035.0,2037.0,1221.0,276.0,72.0,-16056.0,864.0,-343.0,-30.0,6375.0,-4557.0,-23349.0,32295.0,5438464.0,2383.0,2510.0,0.0
4193493000,0.010267892963170986,97390.96459096459,2284.0,2037.0,2036.0,1221.0,300.0,88.0,-16084.0,846.0,-333.0,-23.0,6378.0,-4561.0,-23352.0,32295.0,5438464.0,2365.0,2502.0,0.0
4193749000,0.010267892963170986,97390.96459096459,2280.0,2038.0,2035.0,1223.0,324.0,48.0,-16100.0,851.0,-331.0,-17.0,6378.0,-4563.0,-23356.0,32295.0,5438464.0,2373.0,2509.0,0.0
4194005000,0.010267892963170986,97390.96459096459,2289.0,2035.0,2037.0,1219.0,320.0,40.0,-16120.0,843.0,-335.0,-27.0,6378.0,-4563.0,-23356.0,32295.0,5438464.0,2378.0,2510.0,0.0
4194261000,0.010267892963170986,97390.96459096459,2302.0,2035.0,2036.0,1218.0,280.0,52.0,-16044.0,848.0,-341.0,-6.0,6381.0,-4549.0,-23348.0,32295.0,5438464.0,2379.0,2509.0,0.0
4194517000,0.010267892963170986,97390.96459096459,2299.0,2034.0,2036.0,1220.0,296.0,52.0,-16084.0,862.0,-346.0,-17.0,6382.0,-4551.0,-23351.0,32295.0,5438464.0,2380.0,2510.0,0.0
4194773000,0.010267892963170986,97390.96459096459,2320.0,2036.0,2036.0,1220.0,340.0,44.0,-16120.0,850.0,-347.0,-30.0,6359.0,-4558.0,-23348.0,32295.0,5437952.0,2387.0,2511.0,0.0
4195029000,0.010267892963170986,97390.96459096459,2315.0,2036.0,2036.0,1220.0,288.0,60.0,-16088.0,857.0,-320.0,-10.0,6389.0,-4555.0,-23351.0,32295.0,5437952.0,2384.0,2510.0,0.0
4195285000,0.010267892963170986,97390.96459096459,2315.0,2036.0,2037.0,1222.0,300.0,80.0,-16076.0,857.0,-346.0,-8.0,6389.0,-4555.0,-23351.0,32295.0,5437952.0,2382.0,2509.0,0.0
4195541000,0.010267892963170986,97390.96459096459,2325.0,2035.0,2039.0,1221.0,268.0,72.0,-16064.0,849.0,-332.0,-20.0,6384.0,-4558.0,-23351.0,32295.0,5437952.0,2388.0,2511.0,0.0
4195797000,0.010267892963170986,97390.96459096459,2324.0,2036.0,2037.0,1222.0,284.0,16.0,-16088.0,847.0,-336.0,-35.0,6385.0,-4565.0,-23346.0,32295.0,5438208.0,2385.0,2510.0,0.0
4196053000,0.010267892963170986,97390.96459096459,2326.0,2035.0,2035.0,1221.0,312.0,52.0,-16108.0,855.0,-327.0,-31.0,6388.0,-4555.0,-23347.0,32295.0,5438208.0,2383.0,2510.0,0.0
4196309000,0.01026809893482578,97389.01098901099,2310.0,2035.0,2035.0,1221.0,312.0,88.0,-16108.0,866.0,-337.0,-30.0,6388.0,-4555.0,-23347.0,32295.0,5438464.0,2375.0,2508.0,0.0
4196565000,0.010267892963170986,97390.96459096459,2306.0,2036.0,2036.0,1221.0,296.0,56.0,-16076.0,850.0,-342.0,-23.0,6382.0,-4555.0,-23346.0,32295.0,5438464.0,2378.0,2510.0,0.0
4196821000,0.010267892963170986,97390.96459096459,2319.0,2036.0,2036.0,1221.0,300.0,92.0,-16064.0,836.0,-335.0,-19.0,6381.0,-4552.0,-23351.0,32295.0,5438464.0,2386.0,2511.0,0.0
4197077000,0.010267892963170986,97390.96459096459,2314.0,2037.0,2037.0,1221.0,268.0,52.0,-16076.0,851.0,-331.0,-27.0,6376.0,-4558.0,-23352.0,32295.0,5438464.0,2384.0,2510.0,0.0
4197333000,0.010267892963170986,97390.96459096459,2315.0,2036.0,2036.0,1222.0,284.0,84.0,-16112.0,858.0,-322.0,-35.0,6369.0,-4562.0,-23342.0,32295.0,5437696.0,2382.0,2509.0,0.0
4197589000,0.010267892963170986,97390.96459096459,2284.0,2036.0,2035.0,1221.0,308.0,84.0,-16100.0,833.0,-331.0,-30.0,6369.0,-4562.0,-23342.0,32295.0,5437696.0,2365.0,2502.0,0.0
4197845000,0.010267892963170986,97390.96459096459,2284.0,2035.0,2034.0,1223.0,304.0,84.0,-16076.0,847.0,-325.0,-26.0,6375.0,-4555.0,-23350.0,32295.0,5437952.0,2374.0,2510.0,0.0
4198101000,0.010267892963170986,97390.96459096459,2306.0,2035.0,2036.0,1220.0,280.0,92.0,-16104.0,851.0,-340.0,-22.0,6380.0,-4555.0,-23345.0,32295.0,5437952.0,2385.0,2511.0,0.0
4198357000,0.010267892963170986,97390.96459096459,2307.0,2036.0,2037.0,1220.0,300.0,52.0,-16084.0,851.0,-340.0,-22.0,6384.0,-4556.0,-23346.0,32295.0,5437952.0,2382.0,2509.0,0.0
4198613000,0.010267892963170986,97390.96459096459,2310.0,2036.0,2036.0,1220.0,304.0,80.0,-16060.0,855.0,-352.0,-21.0,6387.0,-4560.0,-23343.0,32295.0,5437952.0,2381.0,2509.0,0.0
4198869000,0.010267892963170986,97390.96459096459,2311.0,2036.0,2036.0,1223.0,260.0,80.0,-16108.0,837.0,-334.0,-25.0,6387.0,-4560.0,-23343.0,32295.0,5438464.0,2381.0,2510.0,0.0
4199125000,0.010267892963170986,97390.96459096459,2310.0,2035.0,2036.0,1221.0,272.0,60.0,-16092.0,844.0,-337.0,-15.0,6383.0,-4552.0,-23349.0,32295.0,5438464.0,2379.0,2507.0,0.0
4199381000,0.010267892963170986,97390.96459096459,2308.0,2037.0,2036.0,1221.0,316.0,20.0,-16072.0,859.0,-344.0,-36.0,6383.0,-4556.0,-23349.0,32295.0,5438208.0,2380.0,2510.0,0.0
4199637000,0.010267892963170986,97390.96459096459,2321.0,2036.0,2037.0,1221.0,288.0,88.0,-16052.0,841.0,-327.0,-35.0,6385.0,-4557.0,-23343.0,32295.0,5438208.0,2387.0,2511.0,0.0
4199893000,0.010267892963170986,97390.96459096459,2317.0,2035.0,2035.0,1219.0,332.0,112.0,-16080.0,856.0,-345.0,-24.0,6376.0,-4561.0,-23345.0,32295.0,5437952.0,2384.0,2510.0,0.0
4200149000,0.010267892963170986,97390.96459096459,2331.0,2036.0,2037.0,1222.0,276.0,100.0,-16120.0,841.0,-335.0,-24.0,6376.0,-4561.0,-23345.0,32295.0,5437952.0,2389.0,2511.0,0.0
4200405000,0.010267892963170986,97390.96459096459,2328.0,2035.0,2036.0,1222.0,352.0,60.0,-16108.0,835.0,-327.0,-17.0,6373.0,-4558.0,-23349.0,32295.0,5438720.0,2385.0,2510.0,0.0
4200661000,0.010267892963170986,97390.96459096459,2303.0,2035.0,2037.0,1220.0,320.0,92.0,-16048.0,851.0,-332.0,-16.0,6383.0,-4557.0,-23350.0,32295.0,5438720.0,2372.0,2503.0,0.0
4200917000,0.010267892963170986,97390.96459096459,2300.0,2035.0,2036.0,1219.0,308.0,68.0,-16076.0,847.0,-337.0,-24.0,6371.0,-4560.0,-23347.0,32295.0,5438720.0,2378.0,2510.0,0.0
4201173000,0.010267892963170986,97390.96459096459,2284.0,2036.0,2037.0,1222.0,308.0,64.0,-16088.0,861.0,-341.0,-16.0,6371.0,-4560.0,-23347.0,32295.0,5438720.0,2370.0,2505.0,0.0
4201429000,0.010267892963170986,97390.96459096459,2288.0,2035.0,2035.0,1220.0,296.0,68.0,-16104.0,858.0,-337.0,-10.0,6371.0,-4555.0,-23350.0,32295.0,5438720.0,2376.0,2510.0,0.0
4201685000,0.010267892963170986,97390.96459096459,2260.0,2036.0,2035.0,1219.0,272.0,60.0,-16080.0,844.0,-331.0,-31.0,6376.0,-4551.0,-23344.0,32295.0,5438720.0,2362.0,2503.0,0.0
4201941000,0.010267892963170986,97390.96459096459,2272.0,2034.0,2036.0,1220.0,276.0,44.0,-16060.0,850.0,-337.0,-28.0,6382.0,-4556.0,-23346.0,32295.0,5438208.0,2373.0,2510.0,0.0
4202197000,0.010267892963170986,97390.96459096459,2283.0,2036.0,2038.0,1220.0,336.0,84.0,-16048.0,835.0,-339.0,-24.0,6384.0,-4556.0,-23340.0,32295.0,5438208.0,2377.0,2510.0,0.0
4202453000,0.010267892963170986,97390.96459096459,2275.0,2036.0,2036.0,1220.0,324.0,52.0,-16104.0,862.0,-325.0,-24.0,6384.0,-4556.0,-23340.0,32295.0,5438720.0,2372.0,2508.0,0.0
4202709000,0.010267892963170986,97390.96459096459,2268.0,2035.0,2036.0,1219.0,292.0,80.0,-16116.0,842.0,-321.0,-39.0,6365.0,-4561.0,-23348.0,32295.0,5438720.0,2366.0,2503.0,0.0
4202965000,0.010267892963170986,97390.96459096459,2278.0,2036.0,2036.0,1220.0,304.0,64.0,-16096.0,868.0,-337.0,-12.0,6384.0,-4554.0,-23345.0,32295.0,5438464.0,2375.0,2510.0,0.0
4203221000,0.010267892963170986,97390.96459096459,2288.0,2035.0,2036.0,1222.0,328.0,64.0,-16076.0,864.0,-342.0,-35.0,6378.0,-4564.0,-23352.0,32295.0,5438464.0,2378.0,2510.0,0.0
4203477000,0.010267892963170986,97390.96459096459,2280.0,2037.0,2036.0,1220.0,280.0,60.0,-16148.0,842.0,-331.0,-16.0,6380.0,-4551.0,-23340.0,32295.0,5438464.0,2372.0,2508.0,0.0
4203733000,0.010267892963170986,97390.96459096459,2280.0,2035.0,2035.0,1221.0,296.0,88.0,-16156.0,858.0,-338.0,-32.0,6380.0,-4551.0,-23340.0,32295.0,5438464.0,2376.0,2509.0,0.0
4203989000,0.010267892963170986,97390.96459096459,2298.0,2035.0,2037.0,1221.0,300.0,96.0,-16116.0,847.0,-343.0,-28.0,6372.0,-4554.0,-23342.0,32295.0,5438208.0,2379.0,2510.0,0.0
4204245000,0.010267892963170986,97390.96459096459,2315.0,2036.0,2038.0,1220.0,316.0,52.0,-16068.0,839.0,-331.0,-29.0,6373.0,-4559.0,-23350.0,32295.0,5438208.0,2387.0,2511.0,0.0
4204501000,0.010267892963170986,97390.96459096459,2320.0,2036.0,2035.0,1219.0,296.0,40.0,-16084.0,851.0,-337.0,-18.0,6380.0,-4554.0,-23348.0,32295.0,5438208.0,2383.0,2509.0,0.0
4204757000,0.010267892963170986,97390.96459096459,2311.0,2036.0,2036.0,1223.0,300.0,48.0,-16100.0,844.0,-364.0,-23.0,6377.0,-4552.0,-23342.0,32295.0,5438208.0,2380.0,2507.0,0.0
4205013000,0.010267892963170986,97390.96459096459,2310.0,2036.0,2037.0,1221.0,316.0,56.0,-16108.0,847.0,-352.0,-29.0,6377.0,-4552.0,-23342.0,32295.0,5438720.0,2381.0,2510.0,0.0
4205269000,0.010267892963170986,97390.96459096459,2230.0,2037.0,2036.0,1220.0,312.0,60.0,-16064.0,831.0,-339.0,-37.0,6384.0,-4559.0,-23334.0,32295.0,5438720.0,2337.0,2490.0,0.0
4205525000,0.01026809893482578,97389.01098901099,2243.0,2036.0,2035.0,1219.0,312.0,68.0,-16072.0,828.0,-336.0,-37.0,6382.0,-4553.0,-23349.0,32295.0,5438464.0,2367.0,2511.0,0.0
4205781000,0.010267892963170986,97390.96459096459,2236.0,2035.0,2035.0,1221.0,300.0,52.0,-16076.0,845.0,-337.0,-33.0,6382.0,-4553.0,-23348.0,32295.0,5438464.0,2359.0,2504.0,0.0
4206037000,0.010267892963170986,97390.96459096459,2251.0,2037.0,2035.0,1223.0,348.0,44.0,-16096.0,838.0,-333.0,-16.0,6384.0,-4560.0,-23341.0,32295.0,5438464.0,2370.0,2509.0,0.0
4206293000,0.010267892963170986,97390.96459096459,2284.0,2035.0,2037.0,1222.0,328.0,64.0,-16084.0,847.0,-347.0,-34.0,6384.0,-4560.0,-23341.0,32295.0,5438464.0,2383.0,2511.0,0.0
4206549000,0.010267892963170986,97390.96459096459,2300.0,2035.0,2037.0,1222.0,292.0,56.0,-16072.0,857.0,-350.0,-43.0,6386.0,-4553.0,-23346.0,32295.0,5438464.0,2382.0,2510.0,0.0
4206805000,0.010267892963170986,97390.96459096459,2313.0,2036.0,2038.0,1222.0,356.0,52.0,-16032.0,865.0,-327.0,-33.0,6375.0,-4560.0,-23341.0,32295.0,5438464.0,2388.0,2511.0,0.0
4207061000,0.010267892963170986,97390.96459096459,2313.0,2035.0,2035.0,1221.0,348.0,36.0,-16128.0,842.0,-347.0,-21.0,6377.0,-4556.0,-23345.0,32295.0,5438464.0,2384.0,2510.0,0.0
4207317000,0.010267892963170986,97390.96459096459,2320.0,2033.0,2036.0,1219.0,288.0,80.0,-16124.0,857.0,-357.0,-33.0,6377.0,-4556.0,-23345.0,32295.0,5438464.0,2383.0,2510.0,0.0
4207573000,0.010267892963170986,97390.96459096459,2316.0,2035.0,2038.0,1221.0,344.0,68.0,-16056.0,849.0,-344.0,-28.0,6378.0,-4559.0,-23341.0,32295.0,5438464.0,2382.0,2510.0,0.0
4207829000,0.010267892963170986,97390.96459096459,2317.0,2037.0,2036.0,1222.0,304.0,40.0,-16048.0,856.0,-347.0,-31.0,6371.0,-4555.0,-23346.0,32295.0,5438464.0,2382.0,2510.0,0.0
4208085000,0.01026809893482578,97389.01098901099,2323.0,2036.0,2038.0,1220.0,292.0,68.0,-16088.0,835.0,-360.0,-18.0,6378.0,-4555.0,-23345.0,32295.0,5438464.0,2388.0,2511.0,0.0
4208341000,0.010267892963170986,97390.96459096459,2318.0,2036.0,2037.0,1219.0,320.0,76.0,-16060.0,851.0,-333.0,-22.0,6355.0,-4552.0,-23346.0,32295.0,5438464.0,2382.0,2507.0,0.0
4208597000,0.010267892963170986,97390.96459096459,2316.0,2036.0,2037.0,1221.0,340.0,56.0,-16076.0,852.0,-332.0,-24.0,6355.0,-4552.0,-23346.0,32295.0,5438208.0,2381.0,2509.0,0.0
4208853000,0.010267892963170986,97390.96459096459,2285.0,2035.0,2038.0,1221.0,304.0,48.0,-16084.0,852.0,-356.0,-34.0,6388.0,-4553.0,-23347.0,32295.0,5438208.0,2366.0,2504.0,0.0
4209109000,0.010267892963170986,97390.96459096459,2286.0,2035.0,2036.0,1220.0,352.0,48.0,-16064.0,836.0,-356.0,-6.0,6384.0,-4557.0,-23345.0,32295.0,5438720.0,2374.0,2510.0,0.0
4209365000,0.010267892963170986,97390.96459096459,2305.0,2037.0,2035.0,1221.0,312.0,80.0,-16072.0,838.0,-316.0,-28.0,6385.0,-4558.0,-23346.0,32295.0,5438720.0,2385.0,2511.0,0.0
4209621000,0.010267892963170986,97390.96459096459,2306.0,2036.0,2037.0,1222.0,320.0,32.0,-16052.0,844.0,-338.0,-30.0,6385.0,-4544.0,-23355.0,32295.0,5438208.0,2382.0,2509.0,0.0
4209877000,0.010267892963170986,97390.96459096459,2283.0,2037.0,2038.0,1222.0,316.0,68.0,-16080.0,828.0,-352.0,-42.0,6385.0,-4544.0,-23355.0,32295.0,5438208.0,2366.0,2504.0,0.0
4210133000,0.010267892963170986,97390.96459096459,2296.0,2036.0,2036.0,1219.0,312.0,72.0,-16060.0,839.0,-345.0,-37.0,6372.0,-4553.0,-23344.0,32295.0,5438464.0,2381.0,2511.0,0.0
4210389000,0.010267892963170986,97390.96459096459,2317.0,2035.0,2035.0,1222.0,292.0,28.0,-16092.0,851.0,-344.0,-2.0,6377.0,-4558.0,-23351.0,32295.0,5438464.0,2387.0,2511.0,0.0
4210645000,0.010267892963170986,97390.96459096459,2317.0,2036.0,2035.0,1221.0,304.0,40.0,-16064.0,846.0,-334.0,-32.0,6378.0,-4551.0,-23345.0,32295.0,5437952.0,2384.0,2510.0,0.0
4210901000,0.010267892963170986,97390.96459096459,2312.0,2036.0,2036.0,1221.0,324.0,88.0,-16080.0,851.0,-326.0,-33.0,6374.0,-4556.0,-23346.0,32295.0,5437952.0,2382.0,2510.0,0.0
4211157000,0.010267892963170986,97390.96459096459,2316.0,2035.0,2034.0,1223.0,324.0,72.0,-16068.0,831.0,-334.0,-20.0,6374.0,-4556.0,-23346.0,32295.0,5438464.0,2382.0,2510.0,0.0
4211413000,0.010267892963170986,97390.96459096459,2322.0,2036.0,2037.0,1220.0,316.0,72.0,-16064.0,843.0,-345.0,-31.0,6367.0,-4558.0,-23338.0,32295.0,5438464.0,2388.0,2511.0,0.0
4211669000,0.010267892963170986,97390.96459096459,2319.0,2035.0,2038.0,1220.0,304.0,52.0,-16068.0,842.0,-342.0,-22.0,6376.0,-4555.0,-23349.0,32295.0,5438464.0,2384.0,2510.0,0.0
4211925000,0.010267892963170986,97390.96459096459,2324.0,2036.0,2036.0,1223.0,320.0,32.0,-16060.0,849.0,-331.0,-22.0,6383.0,-4553.0,-23344.0,32295.0,5438464.0,2383.0,2510.0,0.0
4212181000,0.010267892963170986,97390.96459096459,2315.0,2037.0,2036.0,1220.0,300.0,76.0,-16072.0,861.0,-329.0,-23.0,6377.0,-4558.0,-23344.0,32295.0,5438208.0,2381.0,2509.0,0.0
4212437000,0.010267892963170986,97390.96459096459,2330.0,2034.0,2036.0,1219.0,328.0,64.0,-16092.0,852.0,-344.0,-19.0,6377.0,-4558.0,-23344.0,32295.0,5438208.0,2387.0,2511.0,0.0
4212693000,0.010267892963170986,97390.96459096459,2323.0,2036.0,2038.0,1220.0,344.0,60.0,-16120.0,843.0,-319.0,-32.0,6380.0,-4556.0,-23350.0,32295.0,5438208.0,2384.0,2510.0,0.0
4212949000,0.010267892963170986,97390.96459096459,2303.0,2035.0,2037.0,1223.0,324.0,36.0,-16064.0,839.0,-338.0,-38.0,6386.0,-4557.0,-23347.0,32295.0,5438208.0,2373.0,2505.0,0.0
4213205000,0.010267892963170986,97390.96459096459,2304.0,2037.0,2036.0,1222.0,364.0,92.0,-16048.0,846.0,-342.0,-17.0,6381.0,-4553.0,-23350.0,32295.0,5438464.0,2378.0,2510.0,0.0
4213461000,0.010267892963170986,97390.96459096459,2311.0,2036.0,2035.0,1221.0,336.0,64.0,-16100.0,856.0,-341.0,-12.0,6381.0,-4553.0,-23350.0,32295.0,5438464.0,2386.0,2511.0,0.0
4213717000,0.010267892963170986,97390.96459096459,2321.0,2035.0,2036.0,1222.0,312.0,44.0,-16092.0,841.0,-334.0,-35.0,6383.0,-4555.0,-23350.0,32295.0,5438720.0,2383.0,2510.0,0.0
4213973000,0.010267892963170986,97390.96459096459,2304.0,2035.0,2037.0,1223.0,344.0,12.0,-16120.0,869.0,-336.0,-26.0,6375.0,-4558.0,-23345.0,32295.0,5438720.0,2374.0,2506.0,0.0
4214229000,0.010267892963170986,97390.96459096459,2301.0,2034.0,2036.0,1222.0,344.0,56.0,-16072.0,862.0,-349.0,-10.0,6373.0,-4554.0,-23343.0,32295.0,5438464.0,2378.0,2510.0,0.0
4214485000,0.010267892963170986,97390.96459096459,2303.0,2036.0,2034.0,1222.0,356.0,80.0,-16064.0,822.0,-326.0,-12.0,6369.0,-4553.0,-23350.0,32295.0,5438464.0,2380.0,2510.0,0.0
4214741000,0.010267892963170986,97390.96459096459,2298.0,2035.0,2034.0,1220.0,336.0,84.0,-16084.0,845.0,-334.0,-31.0,6369.0,-4553.0,-23350.0,32295.0,5437952.0,2380.0,2509.0,0.0
4214997000,0.010267892963170986,97390.96459096459,2288.0,2035.0,2037.0,1222.0,312.0,56.0,-16084.0,853.0,-333.0,-19.0,6353.0,-4560.0,-23342.0,32295.0,5437952.0,2372.0,2506.0,0.0
4215253000,0.010267892963170986,97390.96459096459,2293.0,2037.0,2034.0,1221.0,320.0,40.0,-16068.0,849.0,-336.0,-19.0,6378.0,-4556.0,-23343.0,32295.0,5438464.0,2377.0,2510.0,0.0
4215509000,0.010267892963170986,97390.96459096459,2308.0,2036.0,2036.0,1223.0,336.0,72.0,-16056.0,849.0,-336.0,-19.0,6378.0,-4552.0,-23341.0,32295.0,5438464.0,2386.0,2511.0,0.0
4215765000,0.010267892963170986,97390.96459096459,2312.0,2036.0,2035.0,1222.0,340.0,84.0,-16116.0,847.0,-323.0,-34.0,6381.0,-4556.0,-23342.0,32295.0,5438208.0,2382.0,2509.0,0.0
4216021000,0.010267892963170986,97390.96459096459,2296.0,2037.0,2036.0,1219.0,296.0,56.0,-16112.0,836.0,-356.0,-32.0,6381.0,-4556.0,-23342.0,32295.0,5438208.0,2373.0,2505.0,0.0
4216277000,0.010267892963170986,97390.96459096459,2300.0,2035.0,2035.0,1222.0,312.0,76.0,-16108.0,848.0,-333.0,-9.0,6379.0,-4555.0,-23346.0,32295.0,5438976.0,2378.0,2510.0,0.0
4216533000,0.010267892963170986,97390.96459096459,2220.0,2036.0,2037.0,1222.0,348.0,28.0,-16044.0,843.0,-349.0,-9.0,6383.0,-4559.0,-23341.0,32295.0,5438976.0,2335.0,2490.0,0.0
4216789000,0.010267892963170986,97390.96459096459,2218.0,2036.0,2035.0,1223.0,296.0,28.0,-16048.0,822.0,-337.0,-30.0,6373.0,-4555.0,-23345.0,32295.0,5438208.0,2360.0,2509.0,0.0
4217045000,0.010267892963170986,97390.96459096459,2226.0,2035.0,2036.0,1221.0,324.0,16.0,-16064.0,849.0,-332.0,-9.0,6372.0,-4555.0,-23349.0,32295.0,5438208.0,2362.0,2505.0,0.0
4217301000,0.010267892963170986,97390.96459096459,2251.0,2035.0,2036.0,1221.0,328.0,64.0,-16104.0,840.0,-326.0,0.0,6372.0,-4555.0,-23349.0,32295.0,5438720.0,2373.0,2510.0,0.0
4217557000,0.010267892963170986,97390.96459096459,2281.0,2036.0,2036.0,1221.0,316.0,80.0,-16060.0,826.0,-326.0,-21.0,6379.0,-4556.0,-23344.0,32295.0,5438720.0,2384.0,2511.0,0.0
4217813000,0.010267892963170986,97390.96459096459,2298.0,2037.0,2034.0,1221.0,292.0,76.0,-16060.0,839.0,-323.0,-36.0,6375.0,-4556.0,-23349.0,32295.0,5438464.0,2382.0,2510.0,0.0
4218069000,0.010267892963170986,97390.96459096459,2289.0,2035.0,2038.0,1224.0,248.0,64.0,-16084.0,832.0,-344.0,-28.0,6365.0,-4555.0,-23345.0,32295.0,5438464.0,2374.0,2506.0,0.0
4218325000,0.010267892963170986,97390.96459096459,2294.0,2036.0,2036.0,1221.0,296.0,76.0,-16124.0,849.0,-334.0,-36.0,6365.0,-4555.0,-23345.0,32295.0,5438464.0,2378.0,2510.0,0.0
4218581000,0.010267892963170986,97390.96459096459,2310.0,2035.0,2036.0,1221.0,324.0,56.0,-16132.0,852.0,-335.0,-19.0,6379.0,-4551.0,-23349.0,32295.0,5438464.0,2386.0,2511.0,0.0
4218837000,0.010267892963170986,97390.96459096459,2311.0,2035.0,2038.0,1223.0,348.0,56.0,-16076.0,831.0,-330.0,-31.0,6384.0,-4553.0,-23340.0,32295.0,5438208.0,2382.0,2509.0,0.0
4219093000,0.010267892963170986,97390.96459096459,2315.0,2035.0,2036.0,1221.0,292.0,68.0,-16040.0,863.0,-336.0,-36.0,6383.0,-4550.0,-23347.0,32295.0,5438208.0,2382.0,2510.0,0.0
4219349000,0.010267892963170986,97390.96459096459,2311.0,2035.0,2036.0,1221.0,292.0,72.0,-16112.0,858.0,-342.0,-7.0,6366.0,-4555.0,-23342.0,32295.0,5438208.0,2381.0,2509.0,0.0
4219605000,0.010267892963170986,97390.96459096459,2312.0,2034.0,2036.0,1223.0,324.0,64.0,-16104.0,849.0,-351.0,-22.0,6366.0,-4555.0,-23342.0,32295.0,5438208.0,2381.0,2510.0,0.0
4219861000,0.010267892963170986,97390.96459096459,2309.0,2035.0,2036.0,1224.0,292.0,64.0,-16060.0,845.0,-336.0,-35.0,6382.0,-4550.0,-23352.0,32295.0,5438720.0,2380.0,2509.0,0.0
4220117000,0.010267892963170986,97390.96459096459,2309.0,2035.0,2036.0,1223.0,300.0,80.0,-16072.0,853.0,-353.0,-15.0,6382.0,-4559.0,-23345.0,32295.0,5438720.0,2381.0,2510.0,0.0
4220373000,0.010267892963170986,97390.96459096459,2321.0,2035.0,2035.0,1221.0,280.0,68.0,-16084.0,837.0,-340.0,-32.0,6378.0,-4553.0,-23344.0,32295.0,5438720.0,2388.0,2511.0,0.0
4220629000,0.010267892963170986,97390.96459096459,2316.0,2037.0,2037.0,1221.0,316.0,68.0,-16132.0,832.0,-330.0,-13.0,6376.0,-4557.0,-23343.0,32295.0,5438720.0,2384.0,2510.0,0.0
4220885000,0.01026809893482578,97389.01098901099,2315.0,2036.0,2037.0,1224.0,276.0,104.0,-16116.0,842.0,-328.0,-35.0,6376.0,-4557.0,-23343.0,32295.0,5438464.0,2382.0,2509.0,0.0
4221141000,0.010267892963170986,97390.96459096459,2316.0,2036.0,2036.0,1222.0,308.0,92.0,-16056.0,846.0,-329.0,-38.0,6372.0,-4552.0,-23346.0,32295.0,5438464.0,2379.0,2507.0,0.0
4221397000,0.010267892963170986,97390.96459096459,2307.0,2036.0,2037.0,1220.0,296.0,104.0,-16060.0,840.0,-346.0,-31.0,6373.0,-4555.0,-23346.0,32295.0,5438464.0,2380.0,2510.0,0.0
4221653000,0.010267892963170986,97390.96459096459,2311.0,2036.0,2036.0,1220.0,304.0,28.0,-16132.0,844.0,-320.0,-26.0,6367.0,-4551.0,-23344.0,32295.0,5438464.0,2381.0,2510.0,0.0
4221909000,0.010267892963170986,97390.96459096459,2308.0,2034.0,2038.0,1221.0,312.0,56.0,-16116.0,848.0,-336.0,-19.0,6383.0,-4554.0,-23345.0,32295.0,5437696.0,2381.0,2510.0,0.0
4222165000,0.010267892963170986,97390.96459096459,2297.0,2036.0,2037.0,1222.0,328.0,80.0,-16096.0,830.0,-340.0,-30.0,6383.0,-4554.0,-23345.0,32295.0,5437696.0,2373.0,2506.0,0.0
4222421000,0.010267892963170986,97390.96459096459,2301.0,2036.0,2035.0,1221.0,296.0,64.0,-16072.0,846.0,-350.0,-27.0,6382.0,-4554.0,-23345.0,32295.0,5438464.0,2378.0,2510.0,0.0
4222677000,0.010267892963170986,97390.96459096459,2311.0,2035.0,2036.0,1222.0,248.0,64.0,-16080.0,840.0,-339.0,-32.0,6384.0,-4553.0,-23342.0,32295.0,5438464.0,2386.0,2511.0,0.0
4222933000,0.010267892963170986,97390.96459096459,2320.0,2037.0,2037.0,1221.0,292.0,96.0,-16136.0,842.0,-326.0,-32.0,6379.0,-4554.0,-23344.0,32295.0,5438720.0,2383.0,2510.0,0.0
4223189000,0.010267892963170986,97390.96459096459,2314.0,2036.0,2036.0,1221.0,296.0,60.0,-16100.0,840.0,-336.0,0.0,6389.0,-4554.0,-23345.0,32295.0,5438720.0,2382.0,2510.0,0.0
4223445000,0.010267892963170986,97390.96459096459,2314.0,2036.0,2038.0,1219.0,264.0,84.0,-16120.0,839.0,-344.0,-26.0,6389.0,-4554.0,-23345.0,32295.0,5438720.0,2381.0,2510.0,0.0
4223701000,0.010267892963170986,97390.96459096459,2325.0,2036.0,2035.0,1223.0,232.0,104.0,-16100.0,869.0,-338.0,-31.0,6385.0,-4559.0,-23345.0,32295.0,5438720.0,2388.0,2511.0,0.0
4223957000,0.010267892963170986,97390.96459096459,2317.0,2035.0,2038.0,1220.0,304.0,60.0,-16100.0,837.0,-339.0,-15.0,6376.0,-4554.0,-23345.0,32295.0,5438464.0,2384.0,2509.0,0.0
4224213000,0.010267892963170986,97390.96459096459,2317.0,2036.0,2036.0,1220.0,296.0,44.0,-16080.0,836.0,-334.0,-6.0,6374.0,-4555.0,-23345.0,32295.0,5438464.0,2381.0,2507.0,0.0
4224469000,0.010267892963170986,97390.96459096459,2313.0,2035.0,2036.0,1222.0,268.0,96.0,-16136.0,854.0,-344.0,-27.0,6374.0,-4555.0,-23345.0,32295.0,5438976.0,2381.0,2510.0,0.0
4224725000,0.010267892963170986,97390.96459096459,2223.0,2035.0,2037.0,1222.0,272.0,52.0,-16080.0,844.0,-337.0,0.0,6375.0,-4551.0,-23345.0,32295.0,5438976.0,2336.0,2490.0,0.0
4224981000,0.010267892963170986,97390.96459096459,2230.0,2036.0,2037.0,1219.0,272.0,56.0,-16112.0,862.0,-347.0,-14.0,6358.0,-4557.0,-23345.0,32295.0,5438720.0,2361.0,2510.0,0.0
4225237000,0.010267892963170986,97390.96459096459,2245.0,2036.0,2036.0,1221.0,300.0,60.0,-16104.0,846.0,-336.0,-37.0,6381.0,-4554.0,-23341.0,32295.0,5438720.0,2370.0,2507.0,0.0
4225493000,0.010267892963170986,97390.96459096459,2265.0,2037.0,2037.0,1222.0,268.0,52.0,-16092.0,834.0,-337.0,-19.0,6376.0,-4552.0,-23345.0,32295.0,5438208.0,2376.0,2510.0,0.0
4225749000,0.010267892963170986,97390.96459096459,2285.0,2036.0,2036.0,1221.0,336.0,80.0,-16092.0,834.0,-339.0,-19.0,6376.0,-4552.0,-23345.0,32295.0,5438208.0,2379.0,2510.0,0.0
4226005000,0.010267892963170986,97390.96459096459,2310.0,2037.0,2038.0,1222.0,324.0,100.0,-16108.0,832.0,-336.0,-37.0,6385.0,-4553.0,-23347.0,32295.0,5438720.0,2387.0,2511.0,0.0
4226261000,0.010267892963170986,97390.96459096459,2314.0,2037.0,2035.0,1221.0,288.0,72.0,-16120.0,832.0,-338.0,-31.0,6381.0,-4556.0,-23343.0,32295.0,5438720.0,2382.0,2507.0,0.0
4226517000,0.010267892963170986,97390.96459096459,2312.0,2034.0,2034.0,1220.0,320.0,64.0,-16064.0,863.0,-358.0,-19.0,6382.0,-4554.0,-23344.0,32295.0,5438976.0,2382.0,2510.0,0.0
4226773000,0.010267892963170986,97390.96459096459,2311.0,2036.0,2038.0,1222.0,284.0,92.0,-16108.0,833.0,-336.0,-31.0,6379.0,-4557.0,-23346.0,32295.0,5438976.0,2381.0,2510.0,0.0
4227029000,0.010267892963170986,97390.96459096459,2313.0,2036.0,2036.0,1221.0,288.0,76.0,-16104.0,834.0,-334.0,-35.0,6379.0,-4557.0,-23346.0,32295.0,5438720.0,2381.0,2510.0,0.0
4227285000,0.010267892963170986,97390.96459096459,2312.0,2035.0,2036.0,1220.0,324.0,16.0,-16068.0,840.0,-342.0,-26.0,6374.0,-4553.0,-23343.0,32295.0,5438720.0,2381.0,2510.0,0.0
4227541000,0.01026809893482578,97389.01098901099,2315.0,2035.0,2035.0,1221.0,280.0,68.0,-16104.0,845.0,-344.0,-37.0,6374.0,-4556.0,-23349.0,32295.0,5438976.0,2381.0,2510.0,0.0
4227797000,0.010267892963170986,97390.96459096459,2312.0,2037.0,2036.0,1220.0,284.0,60.0,-16104.0,841.0,-326.0,-22.0,6381.0,-4552.0,-23344.0,32295.0,5438976.0,2382.0,2510.0,0.0
4228053000,0.010267892963170986,97390.96459096459,2306.0,2037.0,2037.0,1222.0,312.0,96.0,-16096.0,825.0,-329.0,-17.0,6377.0,-4557.0,-23347.0,32295.0,5438720.0,2380.0,2509.0,0.0
4228309000,0.010267892963170986,97390.96459096459,2311.0,2036.0,2038.0,1221.0,280.0,52.0,-16072.0,879.0,-358.0,-19.0,6377.0,-4557.0,-23347.0,32295.0,5438720.0,2379.0,2507.0,0.0
4228565000,0.010267892963170986,97390.96459096459,2305.0,2036.0,2037.0,1222.0,296.0,88.0,-16152.0,836.0,-339.0,-16.0,6375.0,-4555.0,-23343.0,32295.0,5438464.0,2380.0,2510.0,0.0
4228821000,0.010267892963170986,97390.96459096459,2323.0,2035.0,2036.0,1221.0,300.0,68.0,-16080.0,851.0,-342.0,-31.0,6377.0,-4555.0,-23338.0,32295.0,5438464.0,2387.0,2511.0,0.0
4229077000,0.010267892963170986,97390.96459096459,2323.0,2036.0,2038.0,1221.0,296.0,68.0,-16044.0,854.0,-342.0,-32.0,6382.0,-4559.0,-23346.0,32295.0,5438720.0,2383.0,2509.0,0.0
4229333000,0.010267892963170986,97390.96459096459,2322.0,2034.0,2036.0,1219.0,336.0,52.0,-16112.0,837.0,-333.0,-16.0,6382.0,-4559.0,-23346.0,32295.0,5438720.0,2383.0,2510.0,0.0
4229589000,0.010267892963170986,97390.96459096459,2322.0,2036.0,2038.0,1221.0,316.0,52.0,-16120.0,846.0,-345.0,-23.0,6385.0,-4551.0,-23349.0,32295.0,5438976.0,2382.0,2510.0,0.0
4229845000,0.010267892963170986,97390.96459096459,2324.0,2036.0,2035.0,1220.0,312.0,52.0,-16072.0,848.0,-343.0,-19.0,6385.0,-4555.0,-23343.0,32295.0,5438976.0,2388.0,2511.0,0.0
4230101000,0.010267892963170986,97390.96459096459,2340.0,2036.0,2038.0,1222.0,300.0,60.0,-16084.0,846.0,-348.0,-23.0,6379.0,-4552.0,-23346.0,32295.0,5439232.0,2391.0,2511.0,0.0
4230357000,0.010267892963170986,97390.96459096459,2333.0,2036.0,2038.0,1222.0,296.0,120.0,-16096.0,830.0,-337.0,-28.0,6377.0,-4550.0,-23343.0,32295.0,5439232.0,2383.0,2507.0,0.0
4230613000,0.010267892963170986,97390.96459096459,2334.0,2036.0,2036.0,1220.0,340.0,68.0,-16096.0,850.0,-335.0,-27.0,6377.0,-4550.0,-23343.0,32295.0,5438720.0,2389.0,2511.0,0.0
4230869000,0.010267892963170986,97390.96459096459,2348.0,2035.0,2036.0,1220.0,320.0,68.0,-16112.0,836.0,-335.0,-37.0,6376.0,-4563.0,-23348.0,32295.0,5438720.0,2391.0,2511.0,0.0
4231125000,0.010267892963170986,97390.96459096459,2337.0,2034.0,2037.0,1221.0,316.0,48.0,-16088.0,841.0,-325.0,-16.0,6376.0,-4556.0,-23347.0,32295.0,5438976.0,2386.0,2510.0,0.0
4231381000,0.010267892963170986,97390.96459096459,2341.0,2037.0,2036.0,1221.0,312.0,64.0,-16040.0,839.0,-345.0,-42.0,6378.0,-4555.0,-23348.0,32295.0,5438976.0,2390.0,2511.0,0.0
4231637000,0.010267892963170986,97390.96459096459,2330.0,2036.0,2037.0,1222.0,260.0,68.0,-16120.0,832.0,-355.0,-11.0,6375.0,-4551.0,-23346.0,32295.0,5438464.0,2384.0,2509.0,0.0
4231893000,0.010267892963170986,97390.96459096459,2333.0,2036.0,2037.0,1220.0,280.0,96.0,-16100.0,845.0,-349.0,-19.0,6375.0,-4551.0,-23346.0,32295.0,5438464.0,2389.0,2511.0,0.0
4232149000,0.010267892963170986,97390.96459096459,2246.0,2034.0,2038.0,1222.0,324.0,64.0,-16120.0,842.0,-332.0,-21.0,6379.0,-4551.0,-23348.0,32295.0,5438464.0,2340.0,2490.0,0.0
4232405000,0.01026809893482578,97389.01098901099,2228.0,2034.0,2036.0,1219.0,304.0,80.0,-16080.0,842.0,-332.0,-21.0,6379.0,-4555.0,-23344.0,32295.0,5438464.0,2355.0,2508.0,0.0
4232661000,0.010267892963170986,97390.96459096459,2246.0,2036.0,2036.0,1218.0,276.0,68.0,-16052.0,856.0,-351.0,-20.0,6384.0,-4550.0,-23343.0,32295.0,5438464.0,2369.0,2510.0,0.0
4232917000,0.010267892963170986,97390.96459096459,2264.0,2035.0,2037.0,1222.0,324.0,40.0,-16096.0,834.0,-337.0,-22.0,6384.0,-4555.0,-23348.0,32295.0,5438464.0,2376.0,2510.0,0.0
4233173000,0.010267892963170986,97390.96459096459,2278.0,2036.0,2036.0,1221.0,316.0,72.0,-16116.0,852.0,-335.0,-17.0,6384.0,-4555.0,-23348.0,32295.0,5438464.0,2378.0,2509.0,0.0
4233429000,0.010267892963170986,97390.96459096459,2278.0,2036.0,2037.0,1222.0,320.0,88.0,-16056.0,864.0,-337.0,-29.0,6377.0,-4546.0,-23345.0,32295.0,5438464.0,2372.0,2508.0,0.0
4233685000,0.010267686999779351,97392.9181929182,2299.0,2036.0,2037.0,1221.0,332.0,52.0,-16040.0,868.0,-332.0,-36.0,6384.0,-4560.0,-23346.0,32295.0,5438720.0,2383.0,2511.0,0.0
4233941000,0.010267892963170986,97390.96459096459,2318.0,2035.0,2038.0,1221.0,352.0,40.0,-16120.0,866.0,-339.0,-18.0,6375.0,-4554.0,-23340.0,32295.0,5438720.0,2389.0,2511.0,0.0
4234197000,0.010267892963170986,97390.96459096459,2322.0,2036.0,2036.0,1220.0,292.0,36.0,-16140.0,820.0,-349.0,-29.0,6376.0,-4549.0,-23345.0,32295.0,5438976.0,2385.0,2510.0,0.0
4234453000,0.010267892963170986,97390.96459096459,2330.0,2035.0,2035.0,1223.0,292.0,108.0,-16092.0,845.0,-327.0,-18.0,6376.0,-4549.0,-23345.0,32295.0,5438976.0,2387.0,2507.0,0.0
4234709000,0.010267892963170986,97390.96459096459,2338.0,2036.0,2036.0,1222.0,312.0,24.0,-16048.0,829.0,-339.0,-32.0,6379.0,-4555.0,-23341.0,32295.0,5438464.0,2390.0,2511.0,0.0
4234965000,0.010267892963170986,97390.96459096459,2341.0,2036.0,2038.0,1221.0,324.0,32.0,-16072.0,830.0,-338.0,-25.0,6376.0,-4554.0,-23347.0,32295.0,5438464.0,2392.0,2511.0,0.0
4235221000,0.010267892963170986,97390.96459096459,2245.0,2034.0,2037.0,1222.0,300.0,40.0,-16120.0,860.0,-343.0,-17.0,6379.0,-4557.0,-23351.0,32295.0,5438464.0,2340.0,2489.0,0.0
4235477000,0.010267892963170986,97390.96459096459,2247.0,2037.0,2036.0,1221.0,340.0,76.0,-16088.0,844.0,-338.0,-25.0,6379.0,-4557.0,-23351.0,32295.0,5438464.0,2363.0,2510.0,0.0
4235733000,0.010267892963170986,97390.96459096459,2262.0,2035.0,2037.0,1220.0,312.0,60.0,-16032.0,850.0,-351.0,-7.0,6378.0,-4548.0,-23342.0,32295.0,5438976.0,2373.0,2510.0,0.0
4235989000,0.010267892963170986,97390.96459096459,2288.0,2035.0,2036.0,1222.0,272.0,24.0,-16044.0,843.0,-321.0,-25.0,6384.0,-4554.0,-23347.0,32295.0,5438976.0,2384.0,2511.0,0.0
4236245000,0.010267892963170986,97390.96459096459,2304.0,2035.0,2037.0,1221.0,368.0,36.0,-16056.0,839.0,-339.0,-9.0,6378.0,-4557.0,-23344.0,32295.0,5437952.0,2383.0,2510.0,0.0
4236501000,0.010267892963170986,97390.96459096459,2307.0,2036.0,2035.0,1223.0,332.0,36.0,-16084.0,867.0,-351.0,-38.0,6375.0,-4555.0,-23346.0,32295.0,5437952.0,2381.0,2509.0,0.0
4236757000,0.010267892963170986,97390.96459096459,2310.0,2036.0,2037.0,1220.0,336.0,48.0,-16104.0,835.0,-332.0,-19.0,6375.0,-4555.0,-23346.0,32295.0,5438464.0,2381.0,2510.0,0.0
4237013000,0.010267892963170986,97390.96459096459,2319.0,2034.0,2036.0,1223.0,332.0,72.0,-16064.0,851.0,-337.0,-51.0,6385.0,-4553.0,-23345.0,32295.0,5438464.0,2388.0,2511.0,0.0
4237269000,0.010267892963170986,97390.96459096459,2323.0,2035.0,2036.0,1221.0,304.0,56.0,-16020.0,827.0,-313.0,-26.0,6372.0,-4557.0,-23340.0,32295.0,5438720.0,2383.0,2509.0,0.0
4237525000,0.010267892963170986,97390.96459096459,2320.0,2036.0,2037.0,1222.0,316.0,44.0,-16100.0,859.0,-340.0,-24.0,6375.0,-4556.0,-23346.0,32295.0,5438720.0,2382.0,2510.0,0.0
4237781000,0.010267892963170986,97390.96459096459,2314.0,2036.0,2036.0,1222.0,324.0,60.0,-16104.0,832.0,-346.0,-25.0,6380.0,-4555.0,-23343.0,32295.0,5438208.0,2382.0,2510.0,0.0
4238037000,0.010267892963170986,97390.96459096459,2317.0,2035.0,2034.0,1219.0,320.0,56.0,-16072.0,843.0,-313.0,-41.0,6380.0,-4555.0,-23343.0,32295.0,5438208.0,2382.0,2510.0,0.0
4238293000,0.010267892963170986,97390.96459096459,2308.0,2036.0,2036.0,1223.0,332.0,28.0,-16064.0,847.0,-360.0,-32.0,6371.0,-4556.0,-23345.0,32295.0,5438208.0,2380.0,2509.0,0.0
4238549000,0.010267892963170986,97390.96459096459,2297.0,2036.0,2037.0,1221.0,312.0,64.0,-16040.0,852.0,-325.0,-25.0,6375.0,-4548.0,-23346.0,32295.0,5438208.0,2373.0,2508.0,0.0
4238805000,0.010267892963170986,97390.96459096459,2300.0,2036.0,2037.0,1220.0,332.0,4.0,-16096.0,853.0,-334.0,-16.0,6380.0,-4561.0,-23347.0,32295.0,5438720.0,2378.0,2510.0,0.0
4239061000,0.010267892963170986,97390.96459096459,2296.0,2036.0,2037.0,1221.0,356.0,48.0,-16060.0,848.0,-333.0,-6.0,6382.0,-4552.0,-23342.0,32295.0,5438720.0,2380.0,2510.0,0.0
4239317000,0.010267892963170986,97390.96459096459,2302.0,2036.0,2036.0,1221.0,344.0,88.0,-16048.0,836.0,-326.0,-24.0,6382.0,-4552.0,-23342.0,32295.0,5438976.0,2380.0,2509.0,0.0
4239573000,0.010267892963170986,97390.96459096459,2292.0,2037.0,2038.0,1221.0,336.0,40.0,-16072.0,860.0,-343.0,-29.0,6385.0,-4556.0,-23339.0,32295.0,5438976.0,2374.0,2508.0,0.0
4239829000,0.010267892963170986,97390.96459096459,2296.0,2035.0,2038.0,1219.0,356.0,32.0,-16096.0,850.0,-342.0,-28.0,6379.0,-4557.0,-23347.0,32295.0,5438720.0,2378.0,2510.0,0.0
4240085000,0.010267892963170986,97390.96459096459,2300.0,2034.0,2036.0,1221.0,356.0,28.0,-16092.0,853.0,-330.0,-29.0,6378.0,-4553.0,-23349.0,32295.0,5438720.0,2380.0,2510.0,0.0
4240341000,0.010267892963170986,97390.96459096459,2296.0,2037.0,2036.0,1224.0,324.0,56.0,-16084.0,836.0,-339.0,-10.0,6378.0,-4553.0,-23349.0,32295.0,5438720.0,2380.0,2509.0,0.0
4240597000,0.010267892963170986,97390.96459096459,2293.0,2035.0,2036.0,1221.0,316.0,44.0,-16068.0,863.0,-338.0,-21.0,6382.0,-4553.0,-23339.0,32295.0,5438720.0,2373.0,2508.0,0.0
4240853000,0.010267892963170986,97390.96459096459,2295.0,2035.0,2034.0,1220.0,340.0,40.0,-16092.0,842.0,-345.0,-25.0,6373.0,-4556.0,-23342.0,32295.0,5438464.0,2378.0,2510.0,0.0
4241109000,0.010267892963170986,97390.96459096459,2297.0,2036.0,2036.0,1220.0,316.0,52.0,-16068.0,855.0,-338.0,-19.0,6375.0,-4554.0,-23337.0,32295.0,5438464.0,2380.0,2510.0,0.0
4241365000,0.010267892963170986,97390.96459096459,2301.0,2036.0,2036.0,1219.0,292.0,28.0,-16064.0,827.0,-349.0,1.0,6375.0,-4556.0,-23347.0,32295.0,5438976.0,2380.0,2509.0,0.0
4241621000,0.010267892963170986,97390.96459096459,2302.0,2037.0,2037.0,1222.0,344.0,40.0,-16100.0,846.0,-338.0,-24.0,6375.0,-4556.0,-23347.0,32295.0,5438976.0,2379.0,2507.0,0.0
4241877000,0.010267892963170986,97390.96459096459,2304.0,2035.0,2035.0,1222.0,300.0,88.0,-16076.0,851.0,-342.0,-32.0,6376.0,-4553.0,-23340.0,32295.0,5439232.0,2380.0,2510.0,0.0
4242133000,0.010267892963170986,97390.96459096459,2320.0,2037.0,2036.0,1223.0,336.0,44.0,-16068.0,852.0,-340.0,-32.0,6378.0,-4554.0,-23340.0,32295.0,5439232.0,2387.0,2511.0,0.0
4242389000,0.010267892963170986,97390.96459096459,2317.0,2036.0,2037.0,1221.0,336.0,64.0,-16068.0,839.0,-333.0,-11.0,6381.0,-4553.0,-23340.0,32295.0,5438720.0,2384.0,2510.0,0.0
4242645000,0.01026809893482578,97389.01098901099,2317.0,2037.0,2036.0,1222.0,340.0,44.0,-16068.0,842.0,-325.0,-8.0,6381.0,-4554.0,-23339.0,32295.0,5438720.0,2381.0,2507.0,0.0
4242901000,0.010267892963170986,97390.96459096459,2311.0,2036.0,2036.0,1222.0,332.0,44.0,-16068.0,857.0,-346.0,-15.0,6381.0,-4554.0,-23339.0,32295.0,5438976.0,2381.0,2510.0,0.0
4243157000,0.010267892963170986,97390.96459096459,2323.0,2035.0,2039.0,1220.0,332.0,56.0,-16124.0,858.0,-338.0,-18.0,6384.0,-4554.0,-23339.0,32295.0,5438976.0,2388.0,2511.0,0.0
4243413000,0.010267892963170986,97390.96459096459,2324.0,2036.0,2037.0,1221.0,288.0,64.0,-16084.0,843.0,-331.0,-33.0,6382.0,-4559.0,-23343.0,32295.0,5438208.0,2383.0,2509.0,0.0
4243669000,0.010267892963170986,97390.96459096459,2309.0,2036.0,2037.0,1221.0,312.0,48.0,-16064.0,843.0,-346.0,-33.0,6383.0,-4549.0,-23335.0,32295.0,5438208.0,2375.0,2508.0,0.0
4243925000,0.010267892963170986,97390.96459096459,2305.0,2037.0,2038.0,1221.0,336.0,32.0,-16096.0,855.0,-351.0,-37.0,6374.0,-4553.0,-23336.0,32295.0,5438976.0,2377.0,2509.0,0.0
4244181000,0.010267892963170986,97390.96459096459,2302.0,2035.0,2037.0,1221.0,332.0,52.0,-16100.0,828.0,-333.0,-17.0,6374.0,-4553.0,-23336.0,32295.0,5438976.0,2380.0,2510.0,0.0
4244437000,0.010267892963170986,97390.96459096459,2308.0,2035.0,2036.0,1222.0,288.0,60.0,-16092.0,856.0,-324.0,-28.0,6380.0,-4556.0,-23347.0,32295.0,5439232.0,2381.0,2510.0,0.0
4244693000,0.010267892963170986,97390.96459096459,2298.0,2036.0,2036.0,1221.0,296.0,52.0,-16048.0,837.0,-345.0,-19.0,6374.0,-4557.0,-23346.0,32295.0,5439232.0,2374.0,2508.0,0.0
4244949000,0.010267892963170986,97390.96459096459,2304.0,2035.0,2036.0,1221.0,292.0,52.0,-16056.0,846.0,-336.0,-36.0,6380.0,-4561.0,-23345.0,32295.0,5439232.0,2384.0,2511.0,0.0
4245205000,0.010267892963170986,97390.96459096459,2314.0,2036.0,2037.0,1222.0,312.0,84.0,-16104.0,823.0,-339.0,-16.0,6380.0,-4561.0,-23345.0,32295.0,5439232.0,2383.0,2510.0,0.0
4245461000,0.010267892963170986,97390.96459096459,2313.0,2037.0,2038.0,1221.0,312.0,56.0,-16104.0,858.0,-340.0,-2.0,6372.0,-4549.0,-23344.0,32295.0,5438720.0,2381.0,2509.0,0.0
4245717000,0.010267892963170986,97390.96459096459,2244.0,2036.0,2036.0,1221.0,324.0,80.0,-16092.0,850.0,-336.0,-35.0,6382.0,-4555.0,-23341.0,32295.0,5438720.0,2345.0,2493.0,0.0
4245973000,0.010267892963170986,97390.96459096459,2249.0,2036.0,2036.0,1220.0,320.0,44.0,-16072.0,861.0,-342.0,-26.0,6382.0,-4550.0,-23343.0,32295.0,5438464.0,2365.0,2510.0,0.0
4246229000,0.010267892963170986,97390.96459096459,2270.0,2037.0,2038.0,1219.0,316.0,64.0,-16048.0,839.0,-339.0,-26.0,6381.0,-4559.0,-23341.0,32295.0,5438464.0,2380.0,2511.0,0.0
4246485000,0.010267892963170986,97390.96459096459,2284.0,2036.0,2036.0,1218.0,356.0,60.0,-16088.0,853.0,-337.0,-21.0,6381.0,-4559.0,-23341.0,32295.0,5438976.0,2380.0,2509.0,0.0
4246741000,0.010267892963170986,97390.96459096459,2310.0,2036.0,2037.0,1221.0,316.0,80.0,-16120.0,839.0,-334.0,-30.0,6382.0,-4551.0,-23345.0,32295.0,5438976.0,2387.0,2511.0,0.0
4246997000,0.010267892963170986,97390.96459096459,2312.0,2036.0,2036.0,1221.0,312.0,92.0,-16032.0,847.0,-334.0,-25.0,6383.0,-4550.0,-23341.0,32300.0,5438976.0,2384.0,2510.0,0.0
4247253000,0.010267892963170986,97390.96459096459,2321.0,2036.0,2036.0,1219.0,296.0,84.0,-16072.0,845.0,-332.0,-22.0,6385.0,-4553.0,-23344.0,32300.0,5438976.0,2383.0,2510.0,0.0
4247509000,0.010267892963170986,97390.96459096459,2314.0,2036.0,2037.0,1221.0,288.0,96.0,-16120.0,863.0,-337.0,-22.0,6380.0,-4551.0,-23342.0,32300.0,5439232.0,2381.0,2509.0,0.0
4247765000,0.010267892963170986,97390.96459096459,2308.0,2036.0,2037.0,1221.0,324.0,44.0,-16108.0,850.0,-326.0,-14.0,6380.0,-4551.0,-23342.0,32300.0,5439232.0,2380.0,2509.0,0.0
4248021000,0.010267892963170986,97390.96459096459,2312.0,2038.0,2038.0,1220.0,272.0,76.0,-16032.0,843.0,-334.0,-18.0,6379.0,-4549.0,-23342.0,32300.0,5438720.0,2381.0,2510.0,0.0
4248277000,0.010267892963170986,97390.96459096459,2319.0,2036.0,2036.0,1221.0,304.0,96.0,-16080.0,863.0,-340.0,-11.0,6378.0,-4552.0,-23343.0,32300.0,5438720.0,2388.0,2511.0,0.0
4248533000,0.010267892963170986,97390.96459096459,2320.0,2036.0,2038.0,1222.0,300.0,60.0,-16088.0,832.0,-331.0,-38.0,6373.0,-4557.0,-23338.0,32300.0,5438720.0,2384.0,2510.0,0.0
4248789000,0.010267892963170986,97390.96459096459,2319.0,2034.0,2036.0,1221.0,280.0,76.0,-16076.0,854.0,-329.0,-9.0,6377.0,-4555.0,-23341.0,32300.0,5438720.0,2383.0,2510.0,0.0
4249045000,0.010267892963170986,97390.96459096459,2318.0,2035.0,2037.0,1220.0,316.0,100.0,-16100.0,854.0,-339.0,-45.0,6377.0,-4555.0,-23341.0,32300.0,5438720.0,2382.0,2510.0,0.0
4249301000,0.010267892963170986,97390.96459096459,2326.0,2036.0,2037.0,1222.0,304.0,60.0,-16060.0,841.0,-342.0,-16.0,6383.0,-4561.0,-23337.0,32300.0,5438720.0,2388.0,2511.0,0.0
4249557000,0.010267892963170986,97390.96459096459,2319.0,2035.0,2037.0,1220.0,316.0,20.0,-16052.0,841.0,-342.0,-16.0,6381.0,-4552.0,-23345.0,32300.0,5438208.0,2384.0,2510.0,0.0
4249813000,0.010267892963170986,97390.96459096459,2310.0,2037.0,2035.0,1221.0,316.0,88.0,-16140.0,831.0,-338.0,-22.0,6359.0,-4556.0,-23337.0,32300.0,5438208.0,2375.0,2508.0,0.0
4250069000,0.010267892963170986,97390.96459096459,2303.0,2035.0,2036.0,1223.0,300.0,80.0,-16100.0,820.0,-338.0,-23.0,6383.0,-4554.0,-23347.0,32300.0,5438976.0,2378.0,2509.0,0.0
4250325000,0.010267892963170986,97390.96459096459,2307.0,2035.0,2036.0,1222.0,296.0,108.0,-16152.0,863.0,-343.0,-22.0,6383.0,-4554.0,-23347.0,32300.0,5438976.0,2379.0,2509.0,0.0
4250581000,0.010267892963170986,97390.96459096459,2306.0,2036.0,2037.0,1219.0,276.0,56.0,-16068.0,833.0,-345.0,-18.0,6374.0,-4557.0,-23345.0,32300.0,5438720.0,2380.0,2510.0,0.0
4250837000,0.010267892963170986,97390.96459096459,2294.0,2036.0,2037.0,1220.0,312.0,52.0,-16076.0,839.0,-323.0,-10.0,6381.0,-4552.0,-23342.0,32300.0,5438720.0,2374.0,2508.0,0.0
4251093000,0.010267892963170986,97390.96459096459,2299.0,2036.0,2037.0,1221.0,324.0,92.0,-16124.0,854.0,-357.0,-17.0,6378.0,-4556.0,-23344.0,32300.0,5438464.0,2378.0,2510.0,0.0
4251349000,0.010267892963170986,97390.96459096459,2297.0,2035.0,2038.0,1222.0,316.0,68.0,-16104.0,848.0,-338.0,-23.0,6378.0,-4556.0,-23344.0,32300.0,5438464.0,2380.0,2510.0,0.0
4251605000,0.010267892963170986,97390.96459096459,2300.0,2036.0,2035.0,1221.0,284.0,72.0,-16088.0,834.0,-326.0,-42.0,6371.0,-4554.0,-23347.0,32300.0,5438720.0,2380.0,2509.0,0.0
4251861000,0.010267892963170986,97390.96459096459,2303.0,2037.0,2037.0,1220.0,280.0,96.0,-16080.0,856.0,-321.0,-31.0,6375.0,-4557.0,-23340.0,32300.0,5438720.0,2380.0,2509.0,0.0
4252117000,0.010267892963170986,97390.96459096459,2299.0,2036.0,2037.0,1222.0,316.0,80.0,-16096.0,846.0,-330.0,-19.0,6377.0,-4557.0,-23337.0,32300.0,5438976.0,2380.0,2510.0,0.0
4252373000,0.010267892963170986,97390.96459096459,2307.0,2036.0,2036.0,1221.0,300.0,64.0,-16108.0,846.0,-348.0,-28.0,6377.0,-4554.0,-23347.0,32300.0,5438976.0,2381.0,2510.0,0.0
4252629000,0.010267892963170986,97390.96459096459,2302.0,2036.0,2036.0,1221.0,312.0,52.0,-16084.0,852.0,-356.0,-37.0,6377.0,-4554.0,-23347.0,32300.0,5438720.0,2380.0,2509.0,0.0
4252885000,0.010267892963170986,97390.96459096459,2302.0,2036.0,2035.0,1222.0,260.0,88.0,-16068.0,849.0,-333.0,-25.0,6382.0,-4555.0,-23344.0,32300.0,5438720.0,2380.0,2509.0,0.0
4253141000,0.010267892963170986,97390.96459096459,2309.0,2036.0,2035.0,1220.0,336.0,60.0,-16088.0,865.0,-330.0,-22.0,6381.0,-4554.0,-23340.0,32300.0,5438720.0,2381.0,2510.0,0.0
4253397000,0.010267892963170986,97390.96459096459,2308.0,2036.0,2035.0,1219.0,296.0,32.0,-16136.0,837.0,-326.0,-28.0,6385.0,-4553.0,-23339.0,32300.0,5438720.0,2381.0,2510.0,0.0
4253653000,0.010267892963170986,97390.96459096459,2297.0,2037.0,2038.0,1221.0,256.0,76.0,-16088.0,851.0,-317.0,-27.0,6378.0,-4547.0,-23343.0,32300.0,5438976.0,2374.0,2508.0,0.0
4253909000,0.010267892963170986,97390.96459096459,2289.0,2036.0,2037.0,1222.0,284.0,48.0,-16072.0,842.0,-330.0,-33.0,6378.0,-4547.0,-23343.0,32300.0,5438976.0,2371.0,2508.0,0.0
4254165000,0.010267892963170986,97390.96459096459,2293.0,2035.0,2035.0,1221.0,260.0,116.0,-16100.0,847.0,-331.0,-18.0,6380.0,-4554.0,-23342.0,32300.0,5438720.0,2377.0,2510.0,0.0
4254421000,0.010267892963170986,97390.96459096459,2312.0,2036.0,2037.0,1221.0,284.0,80.0,-16104.0,837.0,-345.0,-34.0,6373.0,-4564.0,-23344.0,32300.0,5438720.0,2386.0,2511.0,0.0
4254677000,0.010267892963170986,97390.96459096459,2315.0,2035.0,2036.0,1221.0,280.0,64.0,-16092.0,844.0,-317.0,-19.0,6384.0,-4552.0,-23342.0,32300.0,5439232.0,2383.0,2510.0,0.0
4254933000,0.010267892963170986,97390.96459096459,2306.0,2035.0,2038.0,1220.0,288.0,80.0,-16088.0,837.0,-343.0,-22.0,6372.0,-4558.0,-23340.0,32300.0,5439232.0,2375.0,2508.0,0.0
4255189000,0.01026809893482578,97389.01098901099,2304.0,2037.0,2035.0,1222.0,256.0,72.0,-16072.0,831.0,-339.0,-18.0,6372.0,-4558.0,-23340.0,32300.0,5438720.0,2378.0,2510.0,0.0
4255445000,0.010267892963170986,97390.96459096459,2315.0,2036.0,2037.0,1222.0,280.0,56.0,-16088.0,853.0,-339.0,-4.0,6373.0,-4556.0,-23342.0,32300.0,5438720.0,2386.0,2511.0,0.0
4255701000,0.010267892963170986,97390.96459096459,2322.0,2036.0,2038.0,1221.0,312.0,88.0,-16088.0,839.0,-350.0,-35.0,6377.0,-4553.0,-23342.0,32300.0,5438720.0,2383.0,2509.0,0.0
4255957000,0.010267892963170986,97390.96459096459,2316.0,2035.0,2036.0,1223.0,280.0,84.0,-16116.0,838.0,-342.0,-36.0,6382.0,-4555.0,-23343.0,32300.0,5438720.0,2382.0,2510.0,0.0
4256213000,0.010267892963170986,97390.96459096459,2314.0,2036.0,2037.0,1222.0,280.0,100.0,-16064.0,846.0,-332.0,-55.0,6386.0,-4558.0,-23345.0,32300.0,5438464.0,2382.0,2510.0,0.0
4256469000,0.010267892963170986,97390.96459096459,2317.0,2037.0,2037.0,1222.0,296.0,76.0,-16120.0,840.0,-352.0,-20.0,6386.0,-4558.0,-23345.0,32300.0,5438464.0,2382.0,2510.0,0.0
4256725000,0.010267892963170986,97390.96459096459,2312.0,2036.0,2035.0,1220.0,332.0,52.0,-16064.0,855.0,-332.0,-26.0,6384.0,-4558.0,-23343.0,32300.0,5438976.0,2381.0,2509.0,0.0
4256981000,0.010267892963170986,97390.96459096459,2328.0,2036.0,2037.0,1222.0,256.0,44.0,-16136.0,849.0,-324.0,-38.0,6386.0,-4560.0,-23341.0,32300.0,5438976.0,2387.0,2511.0,0.0
4257237000,0.010267892963170986,97390.96459096459,2320.0,2035.0,2036.0,1221.0,304.0,36.0,-16052.0,858.0,-341.0,-25.0,6385.0,-4557.0,-23340.0,32300.0,5438976.0,2384.0,2510.0,0.0
4257493000,0.010267892963170986,97390.96459096459,2321.0,2036.0,2036.0,1221.0,312.0,44.0,-16128.0,846.0,-342.0,-28.0,6385.0,-4557.0,-23340.0,32300.0,5438976.0,2383.0,2510.0,0.0
4257749000,0.010267892963170986,97390.96459096459,2322.0,2035.0,2036.0,1221.0,316.0,64.0,-16104.0,838.0,-339.0,-32.0,6379.0,-4550.0,-23346.0,32300.0,5439232.0,2382.0,2510.0,0.0
4258005000,0.010267892963170986,97390.96459096459,2315.0,2034.0,2035.0,1218.0,276.0,112.0,-16080.0,848.0,-349.0,-23.0,6378.0,-4555.0,-23347.0,32300.0,5439232.0,2381.0,2509.0,0.0
4258261000,0.010267892963170986,97390.96459096459,2310.0,2036.0,2037.0,1223.0,300.0,60.0,-16084.0,867.0,-341.0,-47.0,6376.0,-4556.0,-23342.0,32300.0,5438720.0,2380.0,2509.0,0.0
4258517000,0.010267892963170986,97390.96459096459,2310.0,2037.0,2037.0,1222.0,320.0,76.0,-16060.0,840.0,-326.0,-24.0,6374.0,-4555.0,-23343.0,32300.0,5438720.0,2381.0,2510.0,0.0
4258773000,0.010267892963170986,97390.96459096459,2304.0,2036.0,2037.0,1221.0,308.0,56.0,-16096.0,846.0,-343.0,-30.0,6374.0,-4555.0,-23343.0,32300.0,5438720.0,2380.0,2509.0,0.0
4259029000,0.010267892963170986,97390.96459096459,2307.0,2036.0,2038.0,1219.0,304.0,44.0,-16124.0,854.0,-336.0,-24.0,6382.0,-4555.0,-23349.0,32300.0,5438720.0,2380.0,2509.0,0.0
4259285000,0.010267892963170986,97390.96459096459,2320.0,2036.0,2035.0,1219.0,292.0,92.0,-16076.0,846.0,-332.0,-29.0,6380.0,-4558.0,-23341.0,32300.0,5438976.0,2387.0,2511.0,0.0
4259541000,0.010267892963170986,97390.96459096459,2332.0,2035.0,2035.0,1219.0,312.0,84.0,-16076.0,843.0,-329.0,-23.0,6378.0,-4556.0,-23342.0,32300.0,5438976.0,2390.0,2511.0,0.0
4259797000,0.010267892963170986,97390.96459096459,2328.0,2036.0,2035.0,1221.0,304.0,60.0,-16096.0,859.0,-340.0,-31.0,6385.0,-4554.0,-23342.0,32300.0,5438720.0,2385.0,2509.0,0.0
4260053000,0.010267892963170986,97390.96459096459,2325.0,2034.0,2037.0,1220.0,280.0,84.0,-16108.0,855.0,-331.0,-20.0,6385.0,-4554.0,-23342.0,32300.0,5438720.0,2383.0,2510.0,0.0
4260309000,0.010267892963170986,97390.96459096459,2324.0,2035.0,2038.0,1222.0,312.0,32.0,-16092.0,845.0,-328.0,-20.0,6381.0,-4554.0,-23348.0,32300.0,5438976.0,2381.0,2509.0,0.0
4260565000,0.010267892963170986,97390.96459096459,2316.0,2035.0,2039.0,1219.0,332.0,60.0,-16056.0,848.0,-336.0,-19.0,6370.0,-4552.0,-23341.0,32300.0,5438976.0,2381.0,2510.0,0.0
4260821000,0.01026809893482578,97389.01098901099,2310.0,2036.0,2036.0,1221.0,300.0,48.0,-16068.0,859.0,-356.0,-14.0,6384.0,-4553.0,-23346.0,32300.0,5438976.0,2380.0,2509.0,0.0
4261077000,0.010267892963170986,97390.96459096459,2310.0,2036.0,2038.0,1220.0,300.0,48.0,-16124.0,847.0,-348.0,-25.0,6380.0,-4551.0,-23345.0,32300.0,5438976.0,2381.0,2510.0,0.0
4261333000,0.01026809893482578,97389.01098901099,2310.0,2036.0,2036.0,1220.0,324.0,72.0,-16104.0,829.0,-342.0,-14.0,6380.0,-4551.0,-23345.0,32300.0,5438720.0,2381.0,2510.0,0.0
4261589000,0.010267892963170986,97390.96459096459,2315.0,2038.0,2037.0,1222.0,328.0,60.0,-16088.0,851.0,-330.0,-27.0,6376.0,-4557.0,-23341.0,32300.0,5438720.0,2381.0,2510.0,0.0
4261845000,0.010267892963170986,97390.96459096459,2312.0,2037.0,2036.0,1221.0,284.0,100.0,-16056.0,831.0,-339.0,-32.0,6373.0,-4556.0,-23346.0,32300.0,5438720.0,2382.0,2510.0,0.0
4262101000,0.010267892963170986,97390.96459096459,2299.0,2035.0,2038.0,1223.0,292.0,64.0,-16132.0,844.0,-355.0,-42.0,6379.0,-4554.0,-23341.0,32300.0,5438720.0,2374.0,2508.0,0.0
4262357000,0.010267892963170986,97390.96459096459,2299.0,2036.0,2037.0,1222.0,308.0,72.0,-16116.0,853.0,-346.0,-32.0,6379.0,-4554.0,-23341.0,32300.0,5438976.0,2377.0,2509.0,0.0
4262613000,0.010267892963170986,97390.96459096459,2299.0,2036.0,2035.0,1220.0,232.0,48.0,-16092.0,842.0,-356.0,-20.0,6383.0,-4554.0,-23346.0,32300.0,5438976.0,2380.0,2510.0,0.0
4262869000,0.010267892963170986,97390.96459096459,2320.0,2035.0,2037.0,1220.0,272.0,56.0,-16076.0,842.0,-348.0,-23.0,6378.0,-4551.0,-23343.0,32300.0,5438976.0,2387.0,2511.0,0.0
4263125000,0.010267892963170986,97390.96459096459,2303.0,2035.0,2036.0,1220.0,336.0,48.0,-16100.0,845.0,-347.0,-20.0,6374.0,-4555.0,-23342.0,32300.0,5438976.0,2376.0,2508.0,0.0
4263381000,0.010267892963170986,97390.96459096459,2306.0,2037.0,2038.0,1222.0,332.0,36.0,-16128.0,848.0,-342.0,-33.0,6383.0,-4551.0,-23343.0,32300.0,5438976.0,2379.0,2510.0,0.0
4263637000,0.010267892963170986,97390.96459096459,2304.0,2036.0,2038.0,1220.0,316.0,60.0,-16084.0,845.0,-348.0,-22.0,6383.0,-4551.0,-23343.0,32300.0,5438976.0,2380.0,2510.0,0.0
4263893000,0.010267892963170986,97390.96459096459,2221.0,2035.0,2036.0,1221.0,280.0,80.0,-16056.0,868.0,-328.0,-15.0,6378.0,-4557.0,-23349.0,32300.0,5438976.0,2335.0,2489.0,0.0
4264149000,0.010267892963170986,97390.96459096459,2223.0,2036.0,2035.0,1220.0,316.0,40.0,-16064.0,845.0,-349.0,-34.0,6385.0,-4552.0,-23346.0,32300.0,5438976.0,2360.0,2510.0,0.0
4264405000,0.010267892963170986,97390.96459096459,2243.0,2036.0,2037.0,1221.0,304.0,84.0,-16068.0,851.0,-334.0,-35.0,6384.0,-4558.0,-23342.0,32300.0,5438976.0,2372.0,2510.0,0.0
4264661000,0.010267892963170986,97390.96459096459,2266.0,2035.0,2037.0,1220.0,292.0,80.0,-16088.0,837.0,-341.0,-14.0,6380.0,-4556.0,-23342.0,32300.0,5438976.0,2377.0,2510.0,0.0
4264917000,0.010267892963170986,97390.96459096459,2284.0,2035.0,2038.0,1220.0,300.0,28.0,-16112.0,845.0,-345.0,-37.0,6380.0,-4556.0,-23342.0,32300.0,5438976.0,2380.0,2510.0,0.0
4265173000,0.010267892963170986,97390.96459096459,2296.0,2036.0,2037.0,1221.0,336.0,96.0,-16076.0,845.0,-353.0,-36.0,6376.0,-4551.0,-23343.0,32300.0,5438976.0,2381.0,2510.0,0.0
4265429000,0.010267892963170986,97390.96459096459,2304.0,2035.0,2038.0,1220.0,324.0,32.0,-16068.0,821.0,-343.0,-27.0,6380.0,-4556.0,-23336.0,32300.0,5438976.0,2381.0,2510.0,0.0
4265685000,0.010267892963170986,97390.96459096459,2308.0,2035.0,2035.0,1220.0,308.0,76.0,-16100.0,859.0,-355.0,-23.0,6382.0,-4555.0,-23344.0,32300.0,5438976.0,2381.0,2510.0,0.0
4265941000,0.010267892963170986,97390.96459096459,2294.0,2035.0,2038.0,1220.0,304.0,28.0,-16080.0,839.0,-340.0,-20.0,6371.0,-4559.0,-23345.0,32300.0,5439232.0,2374.0,2508.0,0.0
4266197000,0.010267892963170986,97390.96459096459,2220.0,2037.0,2037.0,1223.0,296.0,40.0,-16080.0,856.0,-353.0,-19.0,6371.0,-4559.0,-23345.0,32300.0,5439232.0,2335.0,2492.0,0.0
4266453000,0.010267892963170986,97390.96459096459,2224.0,2037.0,2037.0,1223.0,348.0,52.0,-16040.0,856.0,-353.0,-19.0,6377.0,-4549.0,-23339.0,32300.0,5438208.0,2361.0,2510.0,0.0
4266709000,0.010267892963170986,97390.96459096459,2246.0,2035.0,2037.0,1221.0,292.0,32.0,-16072.0,840.0,-325.0,-34.0,6387.0,-4552.0,-23345.0,32300.0,5438208.0,2372.0,2510.0,0.0
4266965000,0.010267892963170986,97390.96459096459,2270.0,2036.0,2036.0,1220.0,288.0,48.0,-16092.0,847.0,-323.0,-23.0,6377.0,-4554.0,-23347.0,32300.0,5439232.0,2377.0,2510.0,0.0
4267221000,0.010267892963170986,97390.96459096459,2267.0,2036.0,2036.0,1219.0,300.0,44.0,-16080.0,846.0,-325.0,-24.0,6377.0,-4554.0,-23347.0,32300.0,5439232.0,2372.0,2509.0,0.0
4267477000,0.010267892963170986,97390.96459096459,2284.0,2036.0,2035.0,1220.0,332.0,44.0,-16052.0,846.0,-331.0,-27.0,6385.0,-4560.0,-23346.0,32300.0,5438976.0,2377.0,2510.0,0.0
4267733000,0.010267892963170986,97390.96459096459,2303.0,2035.0,2037.0,1221.0,300.0,32.0,-16068.0,832.0,-325.0,-10.0,6385.0,-4557.0,-23341.0,32300.0,5438976.0,2386.0,2511.0,0.0
4267989000,0.010267892963170986,97390.96459096459,2313.0,2035.0,2037.0,1222.0,320.0,48.0,-16084.0,851.0,-344.0,-35.0,6381.0,-4552.0,-23343.0,32300.0,5438208.0,2383.0,2510.0,0.0
4268245000,0.010267892963170986,97390.96459096459,2328.0,2035.0,2036.0,1220.0,300.0,48.0,-16060.0,830.0,-317.0,-14.0,6375.0,-4558.0,-23343.0,32300.0,5438208.0,2389.0,2511.0,0.0
4268501000,0.010267892963170986,97390.96459096459,2319.0,2035.0,2036.0,1221.0,288.0,76.0,-16116.0,850.0,-342.0,-28.0,6375.0,-4558.0,-23343.0,32300.0,5438976.0,2384.0,2510.0,0.0
4268757000,0.010267892963170986,97390.96459096459,2333.0,2036.0,2039.0,1220.0,328.0,108.0,-16080.0,844.0,-336.0,-32.0,6372.0,-4553.0,-23342.0,32300.0,5438976.0,2389.0,2511.0,0.0
4269013000,0.010267892963170986,97390.96459096459,2329.0,2035.0,2036.0,1219.0,332.0,84.0,-16084.0,851.0,-335.0,-25.0,6379.0,-4554.0,-23341.0,32300.0,5438976.0,2385.0,2510.0,0.0
4269269000,0.010267892963170986,97390.96459096459,2327.0,2037.0,2037.0,1224.0,340.0,52.0,-16064.0,848.0,-353.0,-37.0,6378.0,-4554.0,-23344.0,32300.0,5438976.0,2383.0,2510.0,0.0
4269525000,0.010267892963170986,97390.96459096459,2323.0,2036.0,2036.0,1222.0,288.0,32.0,-16084.0,845.0,-355.0,-48.0,6371.0,-4554.0,-23342.0,32300.0,5438976.0,2382.0,2510.0,0.0
4269781000,0.010267892963170986,97390.96459096459,2315.0,2035.0,2037.0,1222.0,296.0,72.0,-16112.0,849.0,-329.0,-36.0,6371.0,-4554.0,-23342.0,32300.0,5438976.0,2382.0,2510.0,0.0
4270037000,0.010267892963170986,97390.96459096459,2318.0,2035.0,2035.0,1221.0,332.0,60.0,-16108.0,845.0,-334.0,-31.0,6355.0,-4554.0,-23347.0,32300.0,5438976.0,2382.0,2510.0,0.0
4270293000,0.010267892963170986,97390.96459096459,2324.0,2035.0,2037.0,1220.0,320.0,72.0,-16100.0,834.0,-355.0,-6.0,6384.0,-4554.0,-23343.0,32300.0,5438976.0,2388.0,2511.0,0.0
4270549000,0.010267892963170986,97390.96459096459,2319.0,2034.0,2036.0,1219.0,280.0,68.0,-16112.0,850.0,-336.0,-3.0,6383.0,-4555.0,-23344.0,32300.0,5438976.0,2384.0,2510.0,0.0
4270805000,0.010267892963170986,97390.96459096459,2318.0,2037.0,2037.0,1220.0,332.0,60.0,-16056.0,841.0,-350.0,-10.0,6388.0,-4557.0,-23348.0,32300.0,5438976.0,2382.0,2509.0,0.0
4271061000,0.010267892963170986,97390.96459096459,2314.0,2036.0,2036.0,1221.0,308.0,48.0,-16028.0,830.0,-336.0,-17.0,6388.0,-4557.0,-23348.0,32300.0,5438976.0,2382.0,2510.0,0.0
4271317000,0.010267892963170986,97390.96459096459,2315.0,2035.0,2036.0,1223.0,368.0,44.0,-16068.0,828.0,-346.0,-33.0,6382.0,-4554.0,-23348.0,32300.0,5438976.0,2381.0,2510.0,0.0
4271573000,0.010267892963170986,97390.96459096459,2315.0,2035.0,2036.0,1220.0,344.0,76.0,-16084.0,851.0,-334.0,-38.0,6376.0,-4554.0,-23342.0,32300.0,5438208.0,2382.0,2510.0,0.0
4271829000,0.010267892963170986,97390.96459096459,2320.0,2036.0,2035.0,1220.0,364.0,20.0,-16080.0,837.0,-313.0,-31.0,6370.0,-4550.0,-23347.0,32300.0,5438208.0,2388.0,2511.0,0.0
4272085000,0.010267892963170986,97390.96459096459,2319.0,2035.0,2036.0,1221.0,336.0,44.0,-16060.0,853.0,-338.0,-23.0,6378.0,-4554.0,-23343.0,32300.0,5438720.0,2384.0,2510.0,0.0
4272341000,0.010267892963170986,97390.96459096459,2316.0,2036.0,2036.0,1222.0,384.0,40.0,-16112.0,850.0,-341.0,-15.0,6378.0,-4554.0,-23343.0,32300.0,5438720.0,2382.0,2509.0,0.0
4272597000,0.01026809893482578,97389.01098901099,2316.0,2035.0,2036.0,1220.0,348.0,72.0,-16100.0,860.0,-347.0,-24.0,6373.0,-4551.0,-23342.0,32300.0,5438464.0,2382.0,2510.0,0.0
4272853000,0.010267892963170986,97390.96459096459,2316.0,2035.0,2037.0,1223.0,304.0,12.0,-16032.0,831.0,-323.0,-39.0,6377.0,-4554.0,-23351.0,32300.0,5438464.0,2382.0,2510.0,0.0
4273109000,0.010267892963170986,97390.96459096459,2307.0,2035.0,2036.0,1221.0,316.0,60.0,-16092.0,851.0,-346.0,-25.0,6377.0,-4557.0,-23343.0,32300.0,5438976.0,2380.0,2509.0,0.0
4273365000,0.010267892963170986,97390.96459096459,2310.0,2036.0,2036.0,1223.0,304.0,32.0,-16104.0,853.0,-358.0,-18.0,6377.0,-4557.0,-23343.0,32300.0,5438976.0,2381.0,2510.0,0.0
4273621000,0.01026809893482578,97389.01098901099,2320.0,2036.0,2036.0,1220.0,316.0,44.0,-16076.0,866.0,-330.0,-7.0,6381.0,-4557.0,-23345.0,32300.0,5439488.0,2388.0,2511.0,0.0
4273877000,0.010267892963170986,97390.96459096459,2331.0,2036.0,2038.0,1221.0,312.0,40.0,-16088.0,852.0,-337.0,-21.0,6382.0,-4558.0,-23343.0,32300.0,5439488.0,2390.0,2511.0,0.0
4274133000,0.010267892963170986,97390.96459096459,2332.0,2036.0,2035.0,1222.0,284.0,64.0,-16056.0,838.0,-339.0,-37.0,6376.0,-4556.0,-23343.0,32300.0,5438720.0,2386.0,2510.0,0.0
4274389000,0.010267892963170986,97390.96459096459,2308.0,2035.0,2036.0,1221.0,316.0,52.0,-16088.0,844.0,-337.0,-26.0,6377.0,-4555.0,-23340.0,32300.0,5438720.0,2376.0,2508.0,0.0
4274645000,0.010267892963170986,97390.96459096459,2305.0,2037.0,2037.0,1222.0,308.0,44.0,-16088.0,836.0,-350.0,-27.0,6377.0,-4555.0,-23340.0,32300.0,5438208.0,2378.0,2509.0,0.0
4274901000,0.010267892963170986,97390.96459096459,2316.0,2035.0,2036.0,1221.0,316.0,24.0,-16108.0,840.0,-342.0,-23.0,6377.0,-4555.0,-23343.0,32300.0,5438208.0,2386.0,2511.0,0.0
4275157000,0.01026809893482578,97389.01098901099,2328.0,2036.0,2038.0,1221.0,304.0,36.0,-16060.0,842.0,-338.0,-21.0,6373.0,-4555.0,-23342.0,32300.0,5438720.0,2390.0,2511.0,0.0
4275413000,0.010267892963170986,97390.96459096459,2330.0,2036.0,2035.0,1222.0,320.0,68.0,-16084.0,841.0,-339.0,-14.0,6378.0,-4554.0,-23338.0,32300.0,5438720.0,2385.0,2510.0,0.0
4275669000,0.010267892963170986,97390.96459096459,2319.0,2036.0,2035.0,1221.0,288.0,68.0,-16096.0,840.0,-347.0,-19.0,6371.0,-4558.0,-23343.0,32300.0,5438720.0,2382.0,2509.0,0.0
4275925000,0.010267892963170986,97390.96459096459,2318.0,2037.0,2036.0,1221.0,304.0,72.0,-16080.0,852.0,-330.0,-41.0,6371.0,-4558.0,-23343.0,32300.0,5438720.0,2382.0,2510.0,0.0
4276181000,0.010267892963170986,97390.96459096459,2318.0,2036.0,2036.0,1223.0,284.0,76.0,-16076.0,856.0,-338.0,-25.0,6377.0,-4555.0,-23349.0,32300.0,5438464.0,2382.0,2510.0,0.0
4276437000,0.010267892963170986,97390.96459096459,2315.0,2036.0,2038.0,1221.0,308.0,32.0,-16080.0,841.0,-342.0,-26.0,6358.0,-4551.0,-23347.0,32300.0,5438464.0,2382.0,2510.0,0.0
4276693000,0.010267892963170986,97390.96459096459,2316.0,2036.0,2036.0,1221.0,304.0,44.0,-16036.0,844.0,-315.0,-17.0,6356.0,-4555.0,-23334.0,32300.0,5438720.0,2381.0,2510.0,0.0
4276949000,0.010267892963170986,97390.96459096459,2311.0,2037.0,2037.0,1223.0,296.0,80.0,-16112.0,845.0,-354.0,-25.0,6384.0,-4553.0,-23341.0,32300.0,5438720.0,2381.0,2510.0,0.0
4277205000,0.010267892963170986,97390.96459096459,2307.0,2033.0,2038.0,1220.0,264.0,76.0,-16104.0,827.0,-333.0,-33.0,6384.0,-4553.0,-23341.0,32300.0,5438464.0,2380.0,2509.0,0.0
4277461000,0.010267892963170986,97390.96459096459,2325.0,2037.0,2036.0,1218.0,312.0,104.0,-16076.0,845.0,-335.0,-30.0,6386.0,-4557.0,-23345.0,32300.0,5438464.0,2387.0,2511.0,0.0
4277717000,0.01026809893482578,97389.01098901099,2318.0,2035.0,2035.0,1220.0,300.0,92.0,-16080.0,840.0,-344.0,-26.0,6389.0,-4557.0,-23345.0,32300.0,5438464.0,2384.0,2510.0,0.0
4277973000,0.010267892963170986,97390.96459096459,2319.0,2035.0,2036.0,1222.0,316.0,56.0,-16136.0,836.0,-331.0,-42.0,6374.0,-4554.0,-23344.0,32300.0,5438464.0,2382.0,2510.0,0.0
4278229000,0.010267892963170986,97390.96459096459,2304.0,2035.0,2035.0,1222.0,320.0,68.0,-16092.0,844.0,-345.0,-31.0,6374.0,-4554.0,-23344.0,32300.0,5438976.0,2375.0,2508.0,0.0
4278485000,0.010267892963170986,97390.96459096459,2317.0,2035.0,2036.0,1222.0,312.0,84.0,-16108.0,858.0,-347.0,-9.0,6375.0,-4563.0,-23345.0,32300.0,5438976.0,2385.0,2511.0,0.0
4278741000,0.010267892963170986,97390.96459096459,2317.0,2036.0,2037.0,1224.0,280.0,88.0,-16052.0,851.0,-340.0,-23.0,6378.0,-4558.0,-23347.0,32300.0,5438464.0,2382.0,2509.0,0.0
4278997000,0.010267892963170986,97390.96459096459,2322.0,2036.0,2036.0,1220.0,288.0,88.0,-16104.0,859.0,-332.0,-22.0,6378.0,-4553.0,-23338.0,32300.0,5438464.0,2388.0,2511.0,0.0
4279253000,0.010267892963170986,97390.96459096459,2325.0,2036.0,2037.0,1220.0,328.0,56.0,-16112.0,843.0,-317.0,-22.0,6371.0,-4553.0,-23346.0,32300.0,5438976.0,2383.0,2509.0,0.0
4279509000,0.010267892963170986,97390.96459096459,2317.0,2036.0,2036.0,1223.0,308.0,68.0,-16100.0,832.0,-322.0,-16.0,6371.0,-4553.0,-23346.0,32300.0,5438976.0,2381.0,2509.0,0.0
4279765000,0.010267892963170986,97390.96459096459,2324.0,2037.0,2038.0,1222.0,300.0,40.0,-16076.0,847.0,-337.0,-24.0,6363.0,-4553.0,-23346.0,32300.0,5438976.0,2388.0,2511.0,0.0
4280021000,0.010267892963170986,97390.96459096459,2341.0,2035.0,2037.0,1223.0,248.0,96.0,-16068.0,847.0,-345.0,-25.0,6383.0,-4558.0,-23342.0,32300.0,5438976.0,2391.0,2511.0,0.0
4280277000,0.010267892963170986,97390.96459096459,2333.0,2036.0,2036.0,1220.0,312.0,80.0,-16096.0,841.0,-345.0,-34.0,6384.0,-4557.0,-23347.0,32300.0,5438208.0,2386.0,2510.0,0.0
4280533000,0.010267892963170986,97390.96459096459,2331.0,2036.0,2038.0,1223.0,308.0,60.0,-16096.0,851.0,-356.0,-8.0,6384.0,-4558.0,-23347.0,32300.0,5438208.0,2383.0,2510.0,0.0
4280789000,0.010267892963170986,97390.96459096459,2321.0,2035.0,2036.0,1222.0,304.0,92.0,-16084.0,837.0,-347.0,-30.0,6384.0,-4558.0,-23347.0,32300.0,5438720.0,2382.0,2510.0,0.0
4281045000,0.010267892963170986,97390.96459096459,2327.0,2036.0,2036.0,1221.0,256.0,60.0,-16064.0,841.0,-347.0,-5.0,6380.0,-4554.0,-23341.0,32300.0,5438720.0,2388.0,2511.0,0.0
4281301000,0.010267892963170986,97390.96459096459,2329.0,2037.0,2036.0,1221.0,276.0,84.0,-16072.0,835.0,-339.0,-27.0,6380.0,-4561.0,-23345.0,32300.0,5438720.0,2383.0,2509.0,0.0
4281557000,0.010267892963170986,97390.96459096459,2332.0,2037.0,2037.0,1222.0,304.0,80.0,-16104.0,830.0,-337.0,-28.0,6380.0,-4544.0,-23345.0,32300.0,5438720.0,2389.0,2511.0,0.0
4281813000,0.010267892963170986,97390.96459096459,2330.0,2035.0,2035.0,1223.0,304.0,64.0,-16112.0,850.0,-359.0,-26.0,6381.0,-4557.0,-23346.0,32300.0,5438208.0,2385.0,2510.0,0.0
4282069000,0.010267892963170986,97390.96459096459,2328.0,2036.0,2036.0,1222.0,324.0,76.0,-16080.0,844.0,-346.0,-19.0,6381.0,-4557.0,-23346.0,32300.0,5438208.0,2383.0,2510.0,0.0
4282325000,0.010267892963170986,97390.96459096459,2322.0,2035.0,2036.0,1221.0,320.0,80.0,-16088.0,840.0,-346.0,-25.0,6383.0,-4558.0,-23342.0,32300.0,5438464.0,2382.0,2510.0,0.0
4282581000,0.010267892963170986,97390.96459096459,2320.0,2035.0,2038.0,1222.0,344.0,84.0,-16068.0,857.0,-345.0,-32.0,6382.0,-4559.0,-23342.0,32300.0,5438464.0,2382.0,2510.0,0.0
4282837000,0.010267892963170986,97390.96459096459,2315.0,2033.0,2037.0,1222.0,304.0,80.0,-16076.0,825.0,-337.0,-29.0,6374.0,-4552.0,-23344.0,32300.0,5438208.0,2382.0,2510.0,0.0
4283093000,0.010267892963170986,97390.96459096459,2313.0,2036.0,2036.0,1222.0,284.0,76.0,-16116.0,850.0,-326.0,-28.0,6371.0,-4553.0,-23344.0,32300.0,5438208.0,2381.0,2510.0,0.0
4283349000,0.010267892963170986,97390.96459096459,2315.0,2035.0,2036.0,1223.0,300.0,52.0,-16076.0,831.0,-334.0,-30.0,6371.0,-4553.0,-23344.0,32300.0,5438464.0,2381.0,2510.0,0.0
4283605000,0.010267892963170986,97390.96459096459,2307.0,2037.0,2037.0,1220.0,292.0,76.0,-16104.0,831.0,-334.0,-30.0,6378.0,-4554.0,-23346.0,32300.0,5438464.0,2380.0,2509.0,0.0
4283861000,0.010267892963170986,97390.96459096459,2312.0,2036.0,2035.0,1220.0,292.0,52.0,-16068.0,847.0,-340.0,-21.0,6380.0,-4561.0,-23342.0,32300.0,5438464.0,2381.0,2510.0,0.0
4284117000,0.010267892963170986,97390.96459096459,2310.0,2035.0,2036.0,1222.0,320.0,60.0,-16092.0,851.0,-338.0,-29.0,6383.0,-4555.0,-23341.0,32300.0,5438464.0,2381.0,2510.0,0.0
4284373000,0.010267892963170986,97390.96459096459,2304.0,2035.0,2036.0,1221.0,324.0,72.0,-16072.0,843.0,-344.0,-21.0,6383.0,-4555.0,-23341.0,32300.0,5438720.0,2380.0,2509.0,0.0
4284629000,0.010267892963170986,97390.96459096459,2311.0,2036.0,2036.0,1222.0,272.0,96.0,-16076.0,838.0,-346.0,-26.0,6381.0,-4553.0,-23338.0,32300.0,5438720.0,2381.0,2510.0,0.0
4284885000,0.010267892963170986,97390.96459096459,2309.0,2037.0,2035.0,1220.0,244.0,60.0,-16104.0,836.0,-361.0,-30.0,6384.0,-4556.0,-23343.0,32300.0,5439232.0,2381.0,2510.0,0.0
4285141000,0.010267892963170986,97390.96459096459,2321.0,2036.0,2037.0,1221.0,248.0,100.0,-16120.0,829.0,-338.0,-17.0,6381.0,-4559.0,-23346.0,32300.0,5439232.0,2388.0,2511.0,0.0
4285397000,0.010267892963170986,97390.96459096459,2321.0,2036.0,2037.0,1221.0,312.0,60.0,-16080.0,829.0,-344.0,-24.0,6379.0,-4553.0,-23341.0,32300.0,5438720.0,2383.0,2509.0,0.0
4285653000,0.010267892963170986,97390.96459096459,2317.0,2034.0,2035.0,1221.0,292.0,60.0,-16088.0,846.0,-336.0,-25.0,6379.0,-4553.0,-23341.0,32300.0,5438720.0,2382.0,2510.0,0.0
4285909000,0.010267892963170986,97390.96459096459,2319.0,2035.0,2036.0,1220.0,280.0,64.0,-16072.0,850.0,-347.0,-19.0,6379.0,-4556.0,-23341.0,32300.0,5438976.0,2382.0,2510.0,0.0
4286165000,0.010267892963170986,97390.96459096459,2314.0,2035.0,2035.0,1223.0,340.0,68.0,-16080.0,844.0,-358.0,-3.0,6374.0,-4550.0,-23347.0,32300.0,5438976.0,2381.0,2510.0,0.0
4286421000,0.010267892963170986,97390.96459096459,2315.0,2038.0,2037.0,1222.0,296.0,80.0,-16068.0,845.0,-340.0,-32.0,6375.0,-4555.0,-23342.0,32300.0,5439232.0,2381.0,2510.0,0.0
4286677000,0.010267892963170986,97390.96459096459,2299.0,2035.0,2036.0,1221.0,312.0,100.0,-16128.0,846.0,-336.0,-6.0,6376.0,-4555.0,-23336.0,32300.0,5439232.0,2374.0,2508.0,0.0
4286933000,0.010267892963170986,97390.96459096459,2299.0,2035.0,2035.0,1221.0,308.0,52.0,-16112.0,838.0,-352.0,-16.0,6376.0,-4555.0,-23336.0,32300.0,5438208.0,2378.0,2510.0,0.0
4287189000,0.010267892963170986,97390.96459096459,2316.0,2038.0,2035.0,1220.0,272.0,68.0,-16108.0,843.0,-333.0,-6.0,6378.0,-4557.0,-23344.0,32300.0,5438208.0,2386.0,2511.0,0.0
4287445000,0.010267892963170986,97390.96459096459,2313.0,2035.0,2037.0,1221.0,272.0,56.0,-16096.0,843.0,-335.0,-37.0,6382.0,-4553.0,-23345.0,32300.0,5438720.0,2384.0,2510.0,0.0
4287701000,0.010267892963170986,97390.96459096459,2314.0,2036.0,2036.0,1220.0,272.0,96.0,-16060.0,832.0,-340.0,-45.0,6383.0,-4554.0,-23344.0,32300.0,5438720.0,2381.0,2509.0,0.0
4287957000,0.010267892963170986,97390.96459096459,2307.0,2037.0,2037.0,1219.0,328.0,68.0,-16080.0,824.0,-349.0,-36.0,6374.0,-4560.0,-23345.0,32300.0,5439232.0,2380.0,2509.0,0.0
4288213000,0.010267892963170986,97390.96459096459,2317.0,2036.0,2034.0,1219.0,304.0,32.0,-16100.0,863.0,-327.0,-20.0,6374.0,-4560.0,-23345.0,32300.0,5439232.0,2388.0,2511.0,0.0
4288469000,0.010267892963170986,97390.96459096459,2320.0,2037.0,2035.0,1223.0,300.0,72.0,-16136.0,819.0,-347.0,-23.0,6382.0,-4555.0,-23347.0,32300.0,5438976.0,2384.0,2510.0,0.0
4288725000,0.010267892963170986,97390.96459096459,2320.0,2036.0,2037.0,1224.0,272.0,100.0,-16064.0,845.0,-335.0,-14.0,6377.0,-4552.0,-23348.0,32300.0,5438976.0,2383.0,2510.0,0.0
4288981000,0.010267892963170986,97390.96459096459,2317.0,2037.0,2037.0,1219.0,300.0,84.0,-16064.0,844.0,-342.0,-18.0,6380.0,-4556.0,-23343.0,32300.0,5439232.0,2381.0,2509.0,0.0
4289237000,0.010267892963170986,97390.96459096459,2315.0,2033.0,2038.0,1221.0,340.0,96.0,-16092.0,845.0,-330.0,-27.0,6380.0,-4556.0,-23343.0,32300.0,5439232.0,2381.0,2510.0,0.0
4289493000,0.010267892963170986,97390.96459096459,2313.0,2035.0,2037.0,1219.0,312.0,64.0,-16104.0,838.0,-343.0,-8.0,6373.0,-4556.0,-23342.0,32300.0,5439232.0,2381.0,2510.0,0.0
4289749000,0.010267892963170986,97390.96459096459,2324.0,2035.0,2038.0,1219.0,280.0,60.0,-16072.0,849.0,-334.0,-30.0,6377.0,-4553.0,-23341.0,32300.0,5439232.0,2388.0,2511.0,0.0
4290005000,0.010267892963170986,97390.96459096459,2336.0,2036.0,2038.0,1222.0,320.0,84.0,-16084.0,842.0,-345.0,-11.0,6376.0,-4550.0,-23342.0,32300.0,5439232.0,2391.0,2511.0,0.0
4290261000,0.010267892963170986,97390.96459096459,2332.0,2036.0,2037.0,1223.0,256.0,44.0,-16068.0,834.0,-321.0,-31.0,6357.0,-4559.0,-23345.0,32300.0,5439232.0,2386.0,2510.0,0.0
